<?xml version="1.0"?>
<GuidanceResponse xmlns="http://hl7.org/fhir" xmlns:hw="http://www.healthwise.org/2009/DocumentInfo" xmlns:atom="http://www.w3.org/2005/Atom">
	<id value="InfoButtonResponse3"/>
	<contained>
		<DocumentReference>
			<id value="InfoButtonResponse1"/>
			<type>
				<coding>
					<system value="http://loinc.org"/>
					<code value="34895-3"/>
					<display value="Education note"/>
				</coding>
			</type>
			<class>
				<coding>
					<system value="http://healthwise.org/doctype"/>
					<code value="conditioncenter"/>
				</coding>
			</class>
			<author>
				<reference value="Organization/healthwise"/>
			</author>
			<custodian>
				<reference value="Organization/healthwise"/>
			</custodian>
			<created value="2016-08-30T22:03:41Z"/>
			<indexed value="2016-08-30T22:03:41Z"/>
			<status value="current"/>
			<docStatus>
				<coding>
					<system value="http://hl7.org/fhir/composition-status"/>
					<code value="final"/>
					<display value="final"/>
				</coding>
			</docStatus>
			<description value="Asthma"/>
			<content>
				<attachment>
					<contentType value="application/atom+xml"/>
					<language value="en-us"/>
					<url value="https://wandering-field.herokuapp.com/Content/en-us/center1042"/>
				</attachment>
			</content>
			<content>
				<attachment>
					<contentType value="text/html"/>
					<language value="en-us"/>
					<url value="https://wandering-field.herokuapp.com/Content/en-us/center1042?hw.format=rhtml"/>
				</attachment>
			</content>
			<content>
				<attachment>
					<contentType value="text/xml"/>
					<language value="en-us"/>
					<url value="https://wandering-field.herokuapp.com/Content/en-us/center1042.xml"/>
				</attachment>
			</content>
			<content>
				<attachment>
					<contentType value="application/pdf"/>
					<language value="en-us"/>
					<url value="https://wandering-field.herokuapp.com/Content/en-us/center1042.pdf"/>
				</attachment>
			</content>
			<content>
				<attachment>
					<contentType value="application/atom+xml"/>
					<language value="es-us"/>
					<url value="https://wandering-field.herokuapp.com/Content/es-us/center1042"/>
				</attachment>
			</content>
			<content>
				<attachment>
					<contentType value="text/html"/>
					<language value="es-us"/>
					<url value="https://wandering-field.herokuapp.com/Content/es-us/center1042?hw.format=rhtml"/>
				</attachment>
			</content>
			<content>
				<attachment>
					<contentType value="text/xml"/>
					<language value="es-us"/>
					<url value="https://wandering-field.herokuapp.com/Content/es-us/center1042.xml"/>
				</attachment>
			</content>
			<content>
				<attachment>
					<contentType value="application/pdf"/>
					<language value="es-us"/>
					<url value="https://wandering-field.herokuapp.com/Content/es-us/center1042.pdf"/>
				</attachment>
			</content>
		</DocumentReference>
	</contained>
	<contained >
		<DocumentReference>
			<id value="InfoButtonResponse2"/>
			<type>
				<coding>
					<system value="http://loinc.org"/>
					<code value="34895-3"/>
					<display value="Education note"/>
				</coding>
			</type>
			<class>
				<coding>
					<system value="http://healthwise.org/doctype"/>
					<code value="special"/>
				</coding>
			</class>
			<author>
				<reference value="Organization/healthwise"/>
			</author>
			<custodian>
				<reference value="Organization/healthwise"/>
			</custodian>
			<created value="2016-08-30T22:03:41Z"/>
			<indexed value="2016-08-30T22:03:41Z"/>
			<status value="current"/>
			<docStatus>
				<coding>
					<system value="http://hl7.org/fhir/composition-status"/>
					<code value="final"/>
					<display value="final"/>
				</coding>
			</docStatus>
			<description value="Asthma in Teens and Adults"/>
			<content>
				<attachment>
					<contentType value="application/atom+xml"/>
					<language value="en-us"/>
					<url value="https://wandering-field.herokuapp.com/Content/en-us/hw271348"/>
				</attachment>
			</content>
			<content>
				<attachment>
					<contentType value="text/html"/>
					<language value="en-us"/>
					<url value="https://wandering-field.herokuapp.com/Content/en-us/hw271348?hw.format=rhtml"/>
				</attachment>
			</content>
			<content>
				<attachment>
					<contentType value="text/xml"/>
					<language value="en-us"/>
					<url value="https://wandering-field.herokuapp.com/Content/en-us/hw271348.xml"/>
				</attachment>
			</content>
			<content>
				<attachment>
					<contentType value="application/pdf"/>
					<language value="en-us"/>
					<url value="https://wandering-field.herokuapp.com/Content/en-us/hw271348.pdf"/>
				</attachment>
			</content>
			<content>
				<attachment>
					<contentType value="application/atom+xml"/>
					<language value="es-us"/>
					<url value="https://wandering-field.herokuapp.com/Content/es-us/hw271348"/>
				</attachment>
			</content>
			<content>
				<attachment>
					<contentType value="text/html"/>
					<language value="es-us"/>
					<url value="https://wandering-field.herokuapp.com/Content/es-us/hw271348?hw.format=rhtml"/>
				</attachment>
			</content>
			<content>
				<attachment>
					<contentType value="text/xml"/>
					<language value="es-us"/>
					<url value="https://wandering-field.herokuapp.com/Content/es-us/hw271348.xml"/>
				</attachment>
			</content>
			<content>
				<attachment>
					<contentType value="application/pdf"/>
					<language value="es-us"/>
					<url value="https://wandering-field.herokuapp.com/Content/es-us/hw271348.pdf"/>
				</attachment>
			</content>
		</DocumentReference>
	</contained>
	<contained >
		<DocumentReference>
			<id value="InfoButtonResponse3"/>
			<type>
				<coding>
					<system value="http://loinc.org"/>
					<code value="34895-3"/>
					<display value="Education note"/>
				</coding>
			</type>
			<class>
				<coding>
					<system value="http://healthwise.org/doctype"/>
					<code value="aftervisit"/>
				</coding>
			</class>
			<author>
				<reference value="Organization/healthwise"/>
			</author>
			<custodian>
				<reference value="Organization/healthwise"/>
			</custodian>
			<created value="2016-08-30T22:03:41Z"/>
			<indexed value="2016-08-30T22:03:41Z"/>
			<status value="current"/>
			<docStatus>
				<coding>
					<system value="http://hl7.org/fhir/composition-status"/>
					<code value="final"/>
					<display value="final"/>
				</coding>
			</docStatus>
			<description value="Asthma in Adults: Care Instructions"/>
			<content>
				<attachment>
					<contentType value="application/atom+xml"/>
					<language value="en-us"/>
					<url value="https://wandering-field.herokuapp.com/Content/en-us/uh2694"/>
				</attachment>
			</content>
			<content>
				<attachment>
					<contentType value="text/html"/>
					<language value="en-us"/>
					<url value="https://wandering-field.herokuapp.com/Content/en-us/uh2694?hw.format=rhtml"/>
				</attachment>
			</content>
			<content>
				<attachment>
					<contentType value="text/xml"/>
					<language value="en-us"/>
					<url value="https://wandering-field.herokuapp.com/Content/en-us/uh2694.xml"/>
				</attachment>
			</content>
			<content>
				<attachment>
					<contentType value="application/pdf"/>
					<language value="en-us"/>
					<url value="https://wandering-field.herokuapp.com/Content/en-us/uh2694.pdf"/>
				</attachment>
			</content>
			<content>
				<attachment>
					<contentType value="application/atom+xml"/>
					<language value="es-us"/>
					<url value="https://wandering-field.herokuapp.com/Content/es-us/uh2694"/>
				</attachment>
			</content>
			<content>
				<attachment>
					<contentType value="text/html"/>
					<language value="es-us"/>
					<url value="https://wandering-field.herokuapp.com/Content/es-us/uh2694?hw.format=rhtml"/>
				</attachment>
			</content>
			<content>
				<attachment>
					<contentType value="text/xml"/>
					<language value="es-us"/>
					<url value="https://wandering-field.herokuapp.com/Content/es-us/uh2694.xml"/>
				</attachment>
			</content>
			<content>
				<attachment>
					<contentType value="application/pdf"/>
					<language value="es-us"/>
					<url value="https://wandering-field.herokuapp.com/Content/es-us/uh2694.pdf"/>
				</attachment>
			</content>
		</DocumentReference>
	</contained>
	<contained >
		<DocumentReference>
			<id value="InfoButtonResponse4"/>
			<type>
				<coding>
					<system value="http://loinc.org"/>
					<code value="34895-3"/>
					<display value="Education note"/>
				</coding>
			</type>
			<class>
				<coding>
					<system value="http://healthwise.org/doctype"/>
					<code value="caresupport"/>
				</coding>
			</class>
			<author>
				<reference value="Organization/healthwise"/>
			</author>
			<custodian>
				<reference value="Organization/healthwise"/>
			</custodian>
			<created value="2016-08-30T22:03:41Z"/>
			<indexed value="2016-08-30T22:03:41Z"/>
			<status value="current"/>
			<docStatus>
				<coding>
					<system value="http://hl7.org/fhir/composition-status"/>
					<code value="final"/>
					<display value="final"/>
				</coding>
			</docStatus>
			<description value="Asthma in Teens and Adults"/>
			<content>
				<attachment>
					<contentType value="application/pdf"/>
					<language value="en-us"/>
					<url value="https://wandering-field.herokuapp.com/Content/en-us/zu1654.pdf"/>
				</attachment>
			</content>
			<content>
				<attachment>
					<contentType value="application/pdf"/>
					<language value="es-us"/>
					<url value="https://wandering-field.herokuapp.com/Content/es-us/zu1654.pdf"/>
				</attachment>
			</content>
		</DocumentReference>
	</contained>
	<contained >
		<DocumentReference>
			<id value="InfoButtonResponse5"/>
			<type>
				<coding>
					<system value="http://loinc.org"/>
					<code value="34895-3"/>
					<display value="Education note"/>
				</coding>
			</type>
			<class>
				<coding>
					<system value="http://healthwise.org/doctype"/>
					<code value="actionset"/>
				</coding>
			</class>
			<author>
				<reference value="Organization/healthwise"/>
			</author>
			<custodian>
				<reference value="Organization/healthwise"/>
			</custodian>
			<created value="2016-08-30T22:03:41Z"/>
			<indexed value="2016-08-30T22:03:41Z"/>
			<status value="current"/>
			<docStatus>
				<coding>
					<system value="http://hl7.org/fhir/composition-status"/>
					<code value="final"/>
					<display value="final"/>
				</coding>
			</docStatus>
			<description value="Asthma: Using an Asthma Action Plan"/>
			<content>
				<attachment>
					<contentType value="application/atom+xml"/>
					<language value="en-us"/>
					<url value="https://wandering-field.herokuapp.com/Content/en-us/aa6560"/>
				</attachment>
			</content>
			<content>
				<attachment>
					<contentType value="text/html"/>
					<language value="en-us"/>
					<url value="https://wandering-field.herokuapp.com/Content/en-us/aa6560?hw.format=rhtml"/>
				</attachment>
			</content>
			<content>
				<attachment>
					<contentType value="text/xml"/>
					<language value="en-us"/>
					<url value="https://wandering-field.herokuapp.com/Content/en-us/aa6560.xml"/>
				</attachment>
			</content>
			<content>
				<attachment>
					<contentType value="application/pdf"/>
					<language value="en-us"/>
					<url value="https://wandering-field.herokuapp.com/Content/en-us/aa6560.pdf"/>
				</attachment>
			</content>
			<content>
				<attachment>
					<contentType value="application/atom+xml"/>
					<language value="es-us"/>
					<url value="https://wandering-field.herokuapp.com/Content/es-us/aa6560"/>
				</attachment>
			</content>
			<content>
				<attachment>
					<contentType value="text/html"/>
					<language value="es-us"/>
					<url value="https://wandering-field.herokuapp.com/Content/es-us/aa6560?hw.format=rhtml"/>
				</attachment>
			</content>
			<content>
				<attachment>
					<contentType value="text/xml"/>
					<language value="es-us"/>
					<url value="https://wandering-field.herokuapp.com/Content/es-us/aa6560.xml"/>
				</attachment>
			</content>
			<content>
				<attachment>
					<contentType value="application/pdf"/>
					<language value="es-us"/>
					<url value="https://wandering-field.herokuapp.com/Content/es-us/aa6560.pdf"/>
				</attachment>
			</content>
		</DocumentReference>
	</contained>
	<contained >
		<DocumentReference>
			<id value="InfoButtonResponse6"/>
			<type>
				<coding>
					<system value="http://loinc.org"/>
					<code value="34895-3"/>
					<display value="Education note"/>
				</coding>
			</type>
			<class>
				<coding>
					<system value="http://healthwise.org/doctype"/>
					<code value="actionset"/>
				</coding>
			</class>
			<author>
				<reference value="Organization/healthwise"/>
			</author>
			<custodian>
				<reference value="Organization/healthwise"/>
			</custodian>
			<created value="2016-08-30T22:03:41Z"/>
			<indexed value="2016-08-30T22:03:41Z"/>
			<status value="current"/>
			<docStatus>
				<coding>
					<system value="http://hl7.org/fhir/composition-status"/>
					<code value="final"/>
					<display value="final"/>
				</coding>
			</docStatus>
			<description value="Breathing Problems: Using a Metered-Dose Inhaler"/>
			<content>
				<attachment>
					<contentType value="application/atom+xml"/>
					<language value="en-us"/>
					<url value="https://wandering-field.herokuapp.com/Content/en-us/aa6623"/>
				</attachment>
			</content>
			<content>
				<attachment>
					<contentType value="text/html"/>
					<language value="en-us"/>
					<url value="https://wandering-field.herokuapp.com/Content/en-us/aa6623?hw.format=rhtml"/>
				</attachment>
			</content>
			<content>
				<attachment>
					<contentType value="text/xml"/>
					<language value="en-us"/>
					<url value="https://wandering-field.herokuapp.com/Content/en-us/aa6623.xml"/>
				</attachment>
			</content>
			<content>
				<attachment>
					<contentType value="application/pdf"/>
					<language value="en-us"/>
					<url value="https://wandering-field.herokuapp.com/Content/en-us/aa6623.pdf"/>
				</attachment>
			</content>
			<content>
				<attachment>
					<contentType value="application/atom+xml"/>
					<language value="es-us"/>
					<url value="https://wandering-field.herokuapp.com/Content/es-us/aa6623"/>
				</attachment>
			</content>
			<content>
				<attachment>
					<contentType value="text/html"/>
					<language value="es-us"/>
					<url value="https://wandering-field.herokuapp.com/Content/es-us/aa6623?hw.format=rhtml"/>
				</attachment>
			</content>
			<content>
				<attachment>
					<contentType value="text/xml"/>
					<language value="es-us"/>
					<url value="https://wandering-field.herokuapp.com/Content/es-us/aa6623.xml"/>
				</attachment>
			</content>
			<content>
				<attachment>
					<contentType value="application/pdf"/>
					<language value="es-us"/>
					<url value="https://wandering-field.herokuapp.com/Content/es-us/aa6623.pdf"/>
				</attachment>
			</content>
		</DocumentReference>
	</contained>
	<contained >
		<DocumentReference>
			<id value="InfoButtonResponse7"/>
			<type>
				<coding>
					<system value="http://loinc.org"/>
					<code value="34895-3"/>
					<display value="Education note"/>
				</coding>
			</type>
			<class>
				<coding>
					<system value="http://healthwise.org/doctype"/>
					<code value="multimedia"/>
				</coding>
			</class>
			<author>
				<reference value="Organization/healthwise"/>
			</author>
			<custodian>
				<reference value="Organization/healthwise"/>
			</custodian>
			<created value="2016-08-30T22:03:41Z"/>
			<indexed value="2016-08-30T22:03:41Z"/>
			<status value="current"/>
			<docStatus>
				<coding>
					<system value="http://hl7.org/fhir/composition-status"/>
					<code value="final"/>
					<display value="final"/>
				</coding>
			</docStatus>
			<description value="Asthma Action Plan"/>
			<content>
				<attachment>
					<contentType value="application/atom+xml"/>
					<language value="en-us"/>
					<url value="https://wandering-field.herokuapp.com/Content/en-us/abl3313"/>
				</attachment>
			</content>
			<content>
				<attachment>
					<contentType value="text/html"/>
					<language value="en-us"/>
					<url value="https://wandering-field.herokuapp.com/Content/en-us/abl3313?hw.format=rhtml"/>
				</attachment>
			</content>
			<content>
				<attachment>
					<contentType value="text/xml"/>
					<language value="en-us"/>
					<url value="https://wandering-field.herokuapp.com/Content/en-us/abl3313.xml"/>
				</attachment>
			</content>
		</DocumentReference>
	</contained>
	<contained >
		<DocumentReference>
			<id value="InfoButtonResponse8"/>
			<type>
				<coding>
					<system value="http://loinc.org"/>
					<code value="34895-3"/>
					<display value="Education note"/>
				</coding>
			</type>
			<class>
				<coding>
					<system value="http://healthwise.org/doctype"/>
					<code value="aftervisit"/>
				</coding>
			</class>
			<author>
				<reference value="Organization/healthwise"/>
			</author>
			<custodian>
				<reference value="Organization/healthwise"/>
			</custodian>
			<created value="2016-08-30T22:03:41Z"/>
			<indexed value="2016-08-30T22:03:41Z"/>
			<status value="current"/>
			<docStatus>
				<coding>
					<system value="http://hl7.org/fhir/composition-status"/>
					<code value="final"/>
					<display value="final"/>
				</coding>
			</docStatus>
			<description value="Asthma: Your Action Plan"/>
			<content>
				<attachment>
					<contentType value="application/atom+xml"/>
					<language value="en-us"/>
					<url value="https://wandering-field.herokuapp.com/Content/en-us/abp8527"/>
				</attachment>
			</content>
			<content>
				<attachment>
					<contentType value="text/html"/>
					<language value="en-us"/>
					<url value="https://wandering-field.herokuapp.com/Content/en-us/abp8527?hw.format=rhtml"/>
				</attachment>
			</content>
			<content>
				<attachment>
					<contentType value="text/xml"/>
					<language value="en-us"/>
					<url value="https://wandering-field.herokuapp.com/Content/en-us/abp8527.xml"/>
				</attachment>
			</content>
			<content>
				<attachment>
					<contentType value="application/pdf"/>
					<language value="en-us"/>
					<url value="https://wandering-field.herokuapp.com/Content/en-us/abp8527.pdf"/>
				</attachment>
			</content>
			<content>
				<attachment>
					<contentType value="application/atom+xml"/>
					<language value="es-us"/>
					<url value="https://wandering-field.herokuapp.com/Content/es-us/abp8527"/>
				</attachment>
			</content>
			<content>
				<attachment>
					<contentType value="text/html"/>
					<language value="es-us"/>
					<url value="https://wandering-field.herokuapp.com/Content/es-us/abp8527?hw.format=rhtml"/>
				</attachment>
			</content>
			<content>
				<attachment>
					<contentType value="text/xml"/>
					<language value="es-us"/>
					<url value="https://wandering-field.herokuapp.com/Content/es-us/abp8527.xml"/>
				</attachment>
			</content>
			<content>
				<attachment>
					<contentType value="application/pdf"/>
					<language value="es-us"/>
					<url value="https://wandering-field.herokuapp.com/Content/es-us/abp8527.pdf"/>
				</attachment>
			</content>
		</DocumentReference>
	</contained>
	<contained >
		<DocumentReference>
			<id value="InfoButtonResponse9"/>
			<type>
				<coding>
					<system value="http://loinc.org"/>
					<code value="34895-3"/>
					<display value="Education note"/>
				</coding>
			</type>
			<class>
				<coding>
					<system value="http://healthwise.org/doctype"/>
					<code value="aftervisit"/>
				</coding>
			</class>
			<author>
				<reference value="Organization/healthwise"/>
			</author>
			<custodian>
				<reference value="Organization/healthwise"/>
			</custodian>
			<created value="2016-08-30T22:03:41Z"/>
			<indexed value="2016-08-30T22:03:41Z"/>
			<status value="current"/>
			<docStatus>
				<coding>
					<system value="http://hl7.org/fhir/composition-status"/>
					<code value="final"/>
					<display value="final"/>
				</coding>
			</docStatus>
			<description value="Controlling Your Asthma: Care Instructions"/>
			<content>
				<attachment>
					<contentType value="application/atom+xml"/>
					<language value="en-us"/>
					<url value="https://wandering-field.herokuapp.com/Content/en-us/uh2774"/>
				</attachment>
			</content>
			<content>
				<attachment>
					<contentType value="text/html"/>
					<language value="en-us"/>
					<url value="https://wandering-field.herokuapp.com/Content/en-us/uh2774?hw.format=rhtml"/>
				</attachment>
			</content>
			<content>
				<attachment>
					<contentType value="text/xml"/>
					<language value="en-us"/>
					<url value="https://wandering-field.herokuapp.com/Content/en-us/uh2774.xml"/>
				</attachment>
			</content>
			<content>
				<attachment>
					<contentType value="application/pdf"/>
					<language value="en-us"/>
					<url value="https://wandering-field.herokuapp.com/Content/en-us/uh2774.pdf"/>
				</attachment>
			</content>
			<content>
				<attachment>
					<contentType value="application/atom+xml"/>
					<language value="es-us"/>
					<url value="https://wandering-field.herokuapp.com/Content/es-us/uh2774"/>
				</attachment>
			</content>
			<content>
				<attachment>
					<contentType value="text/html"/>
					<language value="es-us"/>
					<url value="https://wandering-field.herokuapp.com/Content/es-us/uh2774?hw.format=rhtml"/>
				</attachment>
			</content>
			<content>
				<attachment>
					<contentType value="text/xml"/>
					<language value="es-us"/>
					<url value="https://wandering-field.herokuapp.com/Content/es-us/uh2774.xml"/>
				</attachment>
			</content>
			<content>
				<attachment>
					<contentType value="application/pdf"/>
					<language value="es-us"/>
					<url value="https://wandering-field.herokuapp.com/Content/es-us/uh2774.pdf"/>
				</attachment>
			</content>
		</DocumentReference>
	</contained>
	<contained >
		<DocumentReference>
			<id value="InfoButtonResponse10"/>
			<type>
				<coding>
					<system value="http://loinc.org"/>
					<code value="34895-3"/>
					<display value="Education note"/>
				</coding>
			</type>
			<class>
				<coding>
					<system value="http://healthwise.org/doctype"/>
					<code value="caresupport"/>
				</coding>
			</class>
			<author>
				<reference value="Organization/healthwise"/>
			</author>
			<custodian>
				<reference value="Organization/healthwise"/>
			</custodian>
			<created value="2016-08-30T22:03:41Z"/>
			<indexed value="2016-08-30T22:03:41Z"/>
			<status value="current"/>
			<docStatus>
				<coding>
					<system value="http://hl7.org/fhir/composition-status"/>
					<code value="final"/>
					<display value="final"/>
				</coding>
			</docStatus>
			<description value="Asthma: How to Use an Asthma Action Plan"/>
			<content>
				<attachment>
					<contentType value="application/pdf"/>
					<language value="en-us"/>
					<url value="https://wandering-field.herokuapp.com/Content/en-us/tb1545.pdf"/>
				</attachment>
			</content>
			<content>
				<attachment>
					<contentType value="application/pdf"/>
					<language value="es-us"/>
					<url value="https://wandering-field.herokuapp.com/Content/es-us/tb1545.pdf"/>
				</attachment>
			</content>
		</DocumentReference>
	</contained>
	<contained >
		<DocumentReference>
			<id value="InfoButtonResponse11"/>
			<type>
				<coding>
					<system value="http://loinc.org"/>
					<code value="34895-3"/>
					<display value="Education note"/>
				</coding>
			</type>
			<class>
				<coding>
					<system value="http://healthwise.org/doctype"/>
					<code value="caresupport"/>
				</coding>
			</class>
			<author>
				<reference value="Organization/healthwise"/>
			</author>
			<custodian>
				<reference value="Organization/healthwise"/>
			</custodian>
			<created value="2016-08-30T22:03:41Z"/>
			<indexed value="2016-08-30T22:03:41Z"/>
			<status value="current"/>
			<docStatus>
				<coding>
					<system value="http://hl7.org/fhir/composition-status"/>
					<code value="final"/>
					<display value="final"/>
				</coding>
			</docStatus>
			<description value="Asthma: When to Call a Doctor"/>
			<content>
				<attachment>
					<contentType value="application/pdf"/>
					<language value="en-us"/>
					<url value="https://wandering-field.herokuapp.com/Content/en-us/tb1554.pdf"/>
				</attachment>
			</content>
			<content>
				<attachment>
					<contentType value="application/pdf"/>
					<language value="es-us"/>
					<url value="https://wandering-field.herokuapp.com/Content/es-us/tb1554.pdf"/>
				</attachment>
			</content>
		</DocumentReference>
	</contained>
	<contained >
		<DocumentReference>
			<id value="InfoButtonResponse12"/>
			<type>
				<coding>
					<system value="http://loinc.org"/>
					<code value="34895-3"/>
					<display value="Education note"/>
				</coding>
			</type>
			<class>
				<coding>
					<system value="http://healthwise.org/doctype"/>
					<code value="actionset"/>
				</coding>
			</class>
			<author>
				<reference value="Organization/healthwise"/>
			</author>
			<custodian>
				<reference value="Organization/healthwise"/>
			</custodian>
			<created value="2016-08-30T22:03:41Z"/>
			<indexed value="2016-08-30T22:03:41Z"/>
			<status value="current"/>
			<docStatus>
				<coding>
					<system value="http://hl7.org/fhir/composition-status"/>
					<code value="final"/>
					<display value="final"/>
				</coding>
			</docStatus>
			<description value="Asthma: Taking Charge of Your Asthma"/>
			<content>
				<attachment>
					<contentType value="application/atom+xml"/>
					<language value="en-us"/>
					<url value="https://wandering-field.herokuapp.com/Content/en-us/tb1757"/>
				</attachment>
			</content>
			<content>
				<attachment>
					<contentType value="text/html"/>
					<language value="en-us"/>
					<url value="https://wandering-field.herokuapp.com/Content/en-us/tb1757?hw.format=rhtml"/>
				</attachment>
			</content>
			<content>
				<attachment>
					<contentType value="text/xml"/>
					<language value="en-us"/>
					<url value="https://wandering-field.herokuapp.com/Content/en-us/tb1757.xml"/>
				</attachment>
			</content>
			<content>
				<attachment>
					<contentType value="application/pdf"/>
					<language value="en-us"/>
					<url value="https://wandering-field.herokuapp.com/Content/en-us/tb1757.pdf"/>
				</attachment>
			</content>
			<content>
				<attachment>
					<contentType value="application/atom+xml"/>
					<language value="es-us"/>
					<url value="https://wandering-field.herokuapp.com/Content/es-us/tb1757"/>
				</attachment>
			</content>
			<content>
				<attachment>
					<contentType value="text/html"/>
					<language value="es-us"/>
					<url value="https://wandering-field.herokuapp.com/Content/es-us/tb1757?hw.format=rhtml"/>
				</attachment>
			</content>
			<content>
				<attachment>
					<contentType value="text/xml"/>
					<language value="es-us"/>
					<url value="https://wandering-field.herokuapp.com/Content/es-us/tb1757.xml"/>
				</attachment>
			</content>
			<content>
				<attachment>
					<contentType value="application/pdf"/>
					<language value="es-us"/>
					<url value="https://wandering-field.herokuapp.com/Content/es-us/tb1757.pdf"/>
				</attachment>
			</content>
		</DocumentReference>
	</contained>
	<contained >
		<DocumentReference>
			<id value="InfoButtonResponse13"/>
			<type>
				<coding>
					<system value="http://loinc.org"/>
					<code value="34895-3"/>
					<display value="Education note"/>
				</coding>
			</type>
			<class>
				<coding>
					<system value="http://healthwise.org/doctype"/>
					<code value="aftervisit"/>
				</coding>
			</class>
			<author>
				<reference value="Organization/healthwise"/>
			</author>
			<custodian>
				<reference value="Organization/healthwise"/>
			</custodian>
			<created value="2016-08-30T22:03:41Z"/>
			<indexed value="2016-08-30T22:03:41Z"/>
			<status value="current"/>
			<docStatus>
				<coding>
					<system value="http://hl7.org/fhir/composition-status"/>
					<code value="final"/>
					<display value="final"/>
				</coding>
			</docStatus>
			<description value="Learning About Asthma Triggers"/>
			<content>
				<attachment>
					<contentType value="application/atom+xml"/>
					<language value="en-us"/>
					<url value="https://wandering-field.herokuapp.com/Content/en-us/bo1721"/>
				</attachment>
			</content>
			<content>
				<attachment>
					<contentType value="text/html"/>
					<language value="en-us"/>
					<url value="https://wandering-field.herokuapp.com/Content/en-us/bo1721?hw.format=rhtml"/>
				</attachment>
			</content>
			<content>
				<attachment>
					<contentType value="text/xml"/>
					<language value="en-us"/>
					<url value="https://wandering-field.herokuapp.com/Content/en-us/bo1721.xml"/>
				</attachment>
			</content>
			<content>
				<attachment>
					<contentType value="application/pdf"/>
					<language value="en-us"/>
					<url value="https://wandering-field.herokuapp.com/Content/en-us/bo1721.pdf"/>
				</attachment>
			</content>
			<content>
				<attachment>
					<contentType value="application/atom+xml"/>
					<language value="es-us"/>
					<url value="https://wandering-field.herokuapp.com/Content/es-us/bo1721"/>
				</attachment>
			</content>
			<content>
				<attachment>
					<contentType value="text/html"/>
					<language value="es-us"/>
					<url value="https://wandering-field.herokuapp.com/Content/es-us/bo1721?hw.format=rhtml"/>
				</attachment>
			</content>
			<content>
				<attachment>
					<contentType value="text/xml"/>
					<language value="es-us"/>
					<url value="https://wandering-field.herokuapp.com/Content/es-us/bo1721.xml"/>
				</attachment>
			</content>
			<content>
				<attachment>
					<contentType value="application/pdf"/>
					<language value="es-us"/>
					<url value="https://wandering-field.herokuapp.com/Content/es-us/bo1721.pdf"/>
				</attachment>
			</content>
		</DocumentReference>
	</contained>
	<contained >
		<DocumentReference>
			<id value="InfoButtonResponse14"/>
			<type>
				<coding>
					<system value="http://loinc.org"/>
					<code value="34895-3"/>
					<display value="Education note"/>
				</coding>
			</type>
			<class>
				<coding>
					<system value="http://healthwise.org/doctype"/>
					<code value="special"/>
				</coding>
			</class>
			<author>
				<reference value="Organization/healthwise"/>
			</author>
			<custodian>
				<reference value="Organization/healthwise"/>
			</custodian>
			<created value="2016-08-30T22:03:41Z"/>
			<indexed value="2016-08-30T22:03:41Z"/>
			<status value="current"/>
			<docStatus>
				<coding>
					<system value="http://hl7.org/fhir/composition-status"/>
					<code value="final"/>
					<display value="final"/>
				</coding>
			</docStatus>
			<description value="Inhaled corticosteroids for asthma"/>
			<content>
				<attachment>
					<contentType value="application/atom+xml"/>
					<language value="en-us"/>
					<url value="https://wandering-field.herokuapp.com/Content/en-us/ee1000"/>
				</attachment>
			</content>
			<content>
				<attachment>
					<contentType value="text/html"/>
					<language value="en-us"/>
					<url value="https://wandering-field.herokuapp.com/Content/en-us/ee1000?hw.format=rhtml"/>
				</attachment>
			</content>
			<content>
				<attachment>
					<contentType value="text/xml"/>
					<language value="en-us"/>
					<url value="https://wandering-field.herokuapp.com/Content/en-us/ee1000.xml"/>
				</attachment>
			</content>
			<content>
				<attachment>
					<contentType value="application/pdf"/>
					<language value="en-us"/>
					<url value="https://wandering-field.herokuapp.com/Content/en-us/ee1000.pdf"/>
				</attachment>
			</content>
			<content>
				<attachment>
					<contentType value="application/atom+xml"/>
					<language value="es-us"/>
					<url value="https://wandering-field.herokuapp.com/Content/es-us/ee1000"/>
				</attachment>
			</content>
			<content>
				<attachment>
					<contentType value="text/html"/>
					<language value="es-us"/>
					<url value="https://wandering-field.herokuapp.com/Content/es-us/ee1000?hw.format=rhtml"/>
				</attachment>
			</content>
			<content>
				<attachment>
					<contentType value="text/xml"/>
					<language value="es-us"/>
					<url value="https://wandering-field.herokuapp.com/Content/es-us/ee1000.xml"/>
				</attachment>
			</content>
			<content>
				<attachment>
					<contentType value="application/pdf"/>
					<language value="es-us"/>
					<url value="https://wandering-field.herokuapp.com/Content/es-us/ee1000.pdf"/>
				</attachment>
			</content>
		</DocumentReference>
	</contained>
	<contained >
		<DocumentReference>
			<id value="InfoButtonResponse15"/>
			<type>
				<coding>
					<system value="http://loinc.org"/>
					<code value="34895-3"/>
					<display value="Education note"/>
				</coding>
			</type>
			<class>
				<coding>
					<system value="http://healthwise.org/doctype"/>
					<code value="special"/>
				</coding>
			</class>
			<author>
				<reference value="Organization/healthwise"/>
			</author>
			<custodian>
				<reference value="Organization/healthwise"/>
			</custodian>
			<created value="2016-08-30T22:03:41Z"/>
			<indexed value="2016-08-30T22:03:41Z"/>
			<status value="current"/>
			<docStatus>
				<coding>
					<system value="http://hl7.org/fhir/composition-status"/>
					<code value="final"/>
					<display value="final"/>
				</coding>
			</docStatus>
			<description value="Inhaled quick-relief medicines for asthma"/>
			<content>
				<attachment>
					<contentType value="application/atom+xml"/>
					<language value="en-us"/>
					<url value="https://wandering-field.herokuapp.com/Content/en-us/ee1002"/>
				</attachment>
			</content>
			<content>
				<attachment>
					<contentType value="text/html"/>
					<language value="en-us"/>
					<url value="https://wandering-field.herokuapp.com/Content/en-us/ee1002?hw.format=rhtml"/>
				</attachment>
			</content>
			<content>
				<attachment>
					<contentType value="text/xml"/>
					<language value="en-us"/>
					<url value="https://wandering-field.herokuapp.com/Content/en-us/ee1002.xml"/>
				</attachment>
			</content>
			<content>
				<attachment>
					<contentType value="application/pdf"/>
					<language value="en-us"/>
					<url value="https://wandering-field.herokuapp.com/Content/en-us/ee1002.pdf"/>
				</attachment>
			</content>
			<content>
				<attachment>
					<contentType value="application/atom+xml"/>
					<language value="es-us"/>
					<url value="https://wandering-field.herokuapp.com/Content/es-us/ee1002"/>
				</attachment>
			</content>
			<content>
				<attachment>
					<contentType value="text/html"/>
					<language value="es-us"/>
					<url value="https://wandering-field.herokuapp.com/Content/es-us/ee1002?hw.format=rhtml"/>
				</attachment>
			</content>
			<content>
				<attachment>
					<contentType value="text/xml"/>
					<language value="es-us"/>
					<url value="https://wandering-field.herokuapp.com/Content/es-us/ee1002.xml"/>
				</attachment>
			</content>
			<content>
				<attachment>
					<contentType value="application/pdf"/>
					<language value="es-us"/>
					<url value="https://wandering-field.herokuapp.com/Content/es-us/ee1002.pdf"/>
				</attachment>
			</content>
		</DocumentReference>
	</contained>
	<contained >
		<DocumentReference>
			<id value="InfoButtonResponse16"/>
			<type>
				<coding>
					<system value="http://loinc.org"/>
					<code value="34895-3"/>
					<display value="Education note"/>
				</coding>
			</type>
			<class>
				<coding>
					<system value="http://healthwise.org/doctype"/>
					<code value="aftervisit"/>
				</coding>
			</class>
			<author>
				<reference value="Organization/healthwise"/>
			</author>
			<custodian>
				<reference value="Organization/healthwise"/>
			</custodian>
			<created value="2016-08-30T22:03:41Z"/>
			<indexed value="2016-08-30T22:03:41Z"/>
			<status value="current"/>
			<docStatus>
				<coding>
					<system value="http://hl7.org/fhir/composition-status"/>
					<code value="final"/>
					<display value="final"/>
				</coding>
			</docStatus>
			<description value="Asthma Attack: Care Instructions"/>
			<content>
				<attachment>
					<contentType value="application/atom+xml"/>
					<language value="en-us"/>
					<url value="https://wandering-field.herokuapp.com/Content/en-us/uh2704"/>
				</attachment>
			</content>
			<content>
				<attachment>
					<contentType value="text/html"/>
					<language value="en-us"/>
					<url value="https://wandering-field.herokuapp.com/Content/en-us/uh2704?hw.format=rhtml"/>
				</attachment>
			</content>
			<content>
				<attachment>
					<contentType value="text/xml"/>
					<language value="en-us"/>
					<url value="https://wandering-field.herokuapp.com/Content/en-us/uh2704.xml"/>
				</attachment>
			</content>
			<content>
				<attachment>
					<contentType value="application/pdf"/>
					<language value="en-us"/>
					<url value="https://wandering-field.herokuapp.com/Content/en-us/uh2704.pdf"/>
				</attachment>
			</content>
			<content>
				<attachment>
					<contentType value="application/atom+xml"/>
					<language value="es-us"/>
					<url value="https://wandering-field.herokuapp.com/Content/es-us/uh2704"/>
				</attachment>
			</content>
			<content>
				<attachment>
					<contentType value="text/html"/>
					<language value="es-us"/>
					<url value="https://wandering-field.herokuapp.com/Content/es-us/uh2704?hw.format=rhtml"/>
				</attachment>
			</content>
			<content>
				<attachment>
					<contentType value="text/xml"/>
					<language value="es-us"/>
					<url value="https://wandering-field.herokuapp.com/Content/es-us/uh2704.xml"/>
				</attachment>
			</content>
			<content>
				<attachment>
					<contentType value="application/pdf"/>
					<language value="es-us"/>
					<url value="https://wandering-field.herokuapp.com/Content/es-us/uh2704.pdf"/>
				</attachment>
			</content>
		</DocumentReference>
	</contained>
	<contained >
		<DocumentReference>
			<id value="InfoButtonResponse17"/>
			<type>
				<coding>
					<system value="http://loinc.org"/>
					<code value="34895-3"/>
					<display value="Education note"/>
				</coding>
			</type>
			<class>
				<coding>
					<system value="http://healthwise.org/doctype"/>
					<code value="special"/>
				</coding>
			</class>
			<author>
				<reference value="Organization/healthwise"/>
			</author>
			<custodian>
				<reference value="Organization/healthwise"/>
			</custodian>
			<created value="2016-08-30T22:03:41Z"/>
			<indexed value="2016-08-30T22:03:41Z"/>
			<status value="current"/>
			<docStatus>
				<coding>
					<system value="http://hl7.org/fhir/composition-status"/>
					<code value="final"/>
					<display value="final"/>
				</coding>
			</docStatus>
			<description value="Nebulizer for Asthma Treatment"/>
			<content>
				<attachment>
					<contentType value="application/atom+xml"/>
					<language value="en-us"/>
					<url value="https://wandering-field.herokuapp.com/Content/en-us/aa123392"/>
				</attachment>
			</content>
			<content>
				<attachment>
					<contentType value="text/html"/>
					<language value="en-us"/>
					<url value="https://wandering-field.herokuapp.com/Content/en-us/aa123392?hw.format=rhtml"/>
				</attachment>
			</content>
			<content>
				<attachment>
					<contentType value="text/xml"/>
					<language value="en-us"/>
					<url value="https://wandering-field.herokuapp.com/Content/en-us/aa123392.xml"/>
				</attachment>
			</content>
			<content>
				<attachment>
					<contentType value="application/pdf"/>
					<language value="en-us"/>
					<url value="https://wandering-field.herokuapp.com/Content/en-us/aa123392.pdf"/>
				</attachment>
			</content>
			<content>
				<attachment>
					<contentType value="application/atom+xml"/>
					<language value="es-us"/>
					<url value="https://wandering-field.herokuapp.com/Content/es-us/aa123392"/>
				</attachment>
			</content>
			<content>
				<attachment>
					<contentType value="text/html"/>
					<language value="es-us"/>
					<url value="https://wandering-field.herokuapp.com/Content/es-us/aa123392?hw.format=rhtml"/>
				</attachment>
			</content>
			<content>
				<attachment>
					<contentType value="text/xml"/>
					<language value="es-us"/>
					<url value="https://wandering-field.herokuapp.com/Content/es-us/aa123392.xml"/>
				</attachment>
			</content>
			<content>
				<attachment>
					<contentType value="application/pdf"/>
					<language value="es-us"/>
					<url value="https://wandering-field.herokuapp.com/Content/es-us/aa123392.pdf"/>
				</attachment>
			</content>
		</DocumentReference>
	</contained>
	<contained >
		<DocumentReference>
			<id value="InfoButtonResponse18"/>
			<type>
				<coding>
					<system value="http://loinc.org"/>
					<code value="34895-3"/>
					<display value="Education note"/>
				</coding>
			</type>
			<class>
				<coding>
					<system value="http://healthwise.org/doctype"/>
					<code value="special"/>
				</coding>
			</class>
			<author>
				<reference value="Organization/healthwise"/>
			</author>
			<custodian>
				<reference value="Organization/healthwise"/>
			</custodian>
			<created value="2016-08-30T22:03:41Z"/>
			<indexed value="2016-08-30T22:03:41Z"/>
			<status value="current"/>
			<docStatus>
				<coding>
					<system value="http://hl7.org/fhir/composition-status"/>
					<code value="final"/>
					<display value="final"/>
				</coding>
			</docStatus>
			<description value="Asthma and Vocal Cord Problems"/>
			<content>
				<attachment>
					<contentType value="application/atom+xml"/>
					<language value="en-us"/>
					<url value="https://wandering-field.herokuapp.com/Content/en-us/aa123943"/>
				</attachment>
			</content>
			<content>
				<attachment>
					<contentType value="text/html"/>
					<language value="en-us"/>
					<url value="https://wandering-field.herokuapp.com/Content/en-us/aa123943?hw.format=rhtml"/>
				</attachment>
			</content>
			<content>
				<attachment>
					<contentType value="text/xml"/>
					<language value="en-us"/>
					<url value="https://wandering-field.herokuapp.com/Content/en-us/aa123943.xml"/>
				</attachment>
			</content>
			<content>
				<attachment>
					<contentType value="application/pdf"/>
					<language value="en-us"/>
					<url value="https://wandering-field.herokuapp.com/Content/en-us/aa123943.pdf"/>
				</attachment>
			</content>
			<content>
				<attachment>
					<contentType value="application/atom+xml"/>
					<language value="es-us"/>
					<url value="https://wandering-field.herokuapp.com/Content/es-us/aa123943"/>
				</attachment>
			</content>
			<content>
				<attachment>
					<contentType value="text/html"/>
					<language value="es-us"/>
					<url value="https://wandering-field.herokuapp.com/Content/es-us/aa123943?hw.format=rhtml"/>
				</attachment>
			</content>
			<content>
				<attachment>
					<contentType value="text/xml"/>
					<language value="es-us"/>
					<url value="https://wandering-field.herokuapp.com/Content/es-us/aa123943.xml"/>
				</attachment>
			</content>
			<content>
				<attachment>
					<contentType value="application/pdf"/>
					<language value="es-us"/>
					<url value="https://wandering-field.herokuapp.com/Content/es-us/aa123943.pdf"/>
				</attachment>
			</content>
		</DocumentReference>
	</contained>
	<contained >
		<DocumentReference>
			<id value="InfoButtonResponse19"/>
			<type>
				<coding>
					<system value="http://loinc.org"/>
					<code value="34895-3"/>
					<display value="Education note"/>
				</coding>
			</type>
			<class>
				<coding>
					<system value="http://healthwise.org/doctype"/>
					<code value="special"/>
				</coding>
			</class>
			<author>
				<reference value="Organization/healthwise"/>
			</author>
			<custodian>
				<reference value="Organization/healthwise"/>
			</custodian>
			<created value="2016-08-30T22:03:41Z"/>
			<indexed value="2016-08-30T22:03:41Z"/>
			<status value="current"/>
			<docStatus>
				<coding>
					<system value="http://hl7.org/fhir/composition-status"/>
					<code value="final"/>
					<display value="final"/>
				</coding>
			</docStatus>
			<description value="Asthma Action Plan: Green Zone"/>
			<content>
				<attachment>
					<contentType value="application/atom+xml"/>
					<language value="en-us"/>
					<url value="https://wandering-field.herokuapp.com/Content/en-us/aa126580"/>
				</attachment>
			</content>
			<content>
				<attachment>
					<contentType value="text/html"/>
					<language value="en-us"/>
					<url value="https://wandering-field.herokuapp.com/Content/en-us/aa126580?hw.format=rhtml"/>
				</attachment>
			</content>
			<content>
				<attachment>
					<contentType value="text/xml"/>
					<language value="en-us"/>
					<url value="https://wandering-field.herokuapp.com/Content/en-us/aa126580.xml"/>
				</attachment>
			</content>
			<content>
				<attachment>
					<contentType value="application/pdf"/>
					<language value="en-us"/>
					<url value="https://wandering-field.herokuapp.com/Content/en-us/aa126580.pdf"/>
				</attachment>
			</content>
			<content>
				<attachment>
					<contentType value="application/atom+xml"/>
					<language value="es-us"/>
					<url value="https://wandering-field.herokuapp.com/Content/es-us/aa126580"/>
				</attachment>
			</content>
			<content>
				<attachment>
					<contentType value="text/html"/>
					<language value="es-us"/>
					<url value="https://wandering-field.herokuapp.com/Content/es-us/aa126580?hw.format=rhtml"/>
				</attachment>
			</content>
			<content>
				<attachment>
					<contentType value="text/xml"/>
					<language value="es-us"/>
					<url value="https://wandering-field.herokuapp.com/Content/es-us/aa126580.xml"/>
				</attachment>
			</content>
			<content>
				<attachment>
					<contentType value="application/pdf"/>
					<language value="es-us"/>
					<url value="https://wandering-field.herokuapp.com/Content/es-us/aa126580.pdf"/>
				</attachment>
			</content>
		</DocumentReference>
	</contained>
	<contained >
		<DocumentReference>
			<id value="InfoButtonResponse20"/>
			<type>
				<coding>
					<system value="http://loinc.org"/>
					<code value="34895-3"/>
					<display value="Education note"/>
				</coding>
			</type>
			<class>
				<coding>
					<system value="http://healthwise.org/doctype"/>
					<code value="special"/>
				</coding>
			</class>
			<author>
				<reference value="Organization/healthwise"/>
			</author>
			<custodian>
				<reference value="Organization/healthwise"/>
			</custodian>
			<created value="2016-08-30T22:03:41Z"/>
			<indexed value="2016-08-30T22:03:41Z"/>
			<status value="current"/>
			<docStatus>
				<coding>
					<system value="http://hl7.org/fhir/composition-status"/>
					<code value="final"/>
					<display value="final"/>
				</coding>
			</docStatus>
			<description value="Asthma: Peak Expiratory Flow and Personal Best"/>
			<content>
				<attachment>
					<contentType value="application/atom+xml"/>
					<language value="en-us"/>
					<url value="https://wandering-field.herokuapp.com/Content/en-us/aa126622"/>
				</attachment>
			</content>
			<content>
				<attachment>
					<contentType value="text/html"/>
					<language value="en-us"/>
					<url value="https://wandering-field.herokuapp.com/Content/en-us/aa126622?hw.format=rhtml"/>
				</attachment>
			</content>
			<content>
				<attachment>
					<contentType value="text/xml"/>
					<language value="en-us"/>
					<url value="https://wandering-field.herokuapp.com/Content/en-us/aa126622.xml"/>
				</attachment>
			</content>
			<content>
				<attachment>
					<contentType value="application/pdf"/>
					<language value="en-us"/>
					<url value="https://wandering-field.herokuapp.com/Content/en-us/aa126622.pdf"/>
				</attachment>
			</content>
			<content>
				<attachment>
					<contentType value="application/atom+xml"/>
					<language value="es-us"/>
					<url value="https://wandering-field.herokuapp.com/Content/es-us/aa126622"/>
				</attachment>
			</content>
			<content>
				<attachment>
					<contentType value="text/html"/>
					<language value="es-us"/>
					<url value="https://wandering-field.herokuapp.com/Content/es-us/aa126622?hw.format=rhtml"/>
				</attachment>
			</content>
			<content>
				<attachment>
					<contentType value="text/xml"/>
					<language value="es-us"/>
					<url value="https://wandering-field.herokuapp.com/Content/es-us/aa126622.xml"/>
				</attachment>
			</content>
			<content>
				<attachment>
					<contentType value="application/pdf"/>
					<language value="es-us"/>
					<url value="https://wandering-field.herokuapp.com/Content/es-us/aa126622.pdf"/>
				</attachment>
			</content>
		</DocumentReference>
	</contained>
	<contained >
		<DocumentReference>
			<id value="InfoButtonResponse21"/>
			<type>
				<coding>
					<system value="http://loinc.org"/>
					<code value="34895-3"/>
					<display value="Education note"/>
				</coding>
			</type>
			<class>
				<coding>
					<system value="http://healthwise.org/doctype"/>
					<code value="special"/>
				</coding>
			</class>
			<author>
				<reference value="Organization/healthwise"/>
			</author>
			<custodian>
				<reference value="Organization/healthwise"/>
			</custodian>
			<created value="2016-08-30T22:03:41Z"/>
			<indexed value="2016-08-30T22:03:41Z"/>
			<status value="current"/>
			<docStatus>
				<coding>
					<system value="http://hl7.org/fhir/composition-status"/>
					<code value="final"/>
					<display value="final"/>
				</coding>
			</docStatus>
			<description value="Asthma: How to Overcome Treatment Obstacles"/>
			<content>
				<attachment>
					<contentType value="application/atom+xml"/>
					<language value="en-us"/>
					<url value="https://wandering-field.herokuapp.com/Content/en-us/aa126676"/>
				</attachment>
			</content>
			<content>
				<attachment>
					<contentType value="text/html"/>
					<language value="en-us"/>
					<url value="https://wandering-field.herokuapp.com/Content/en-us/aa126676?hw.format=rhtml"/>
				</attachment>
			</content>
			<content>
				<attachment>
					<contentType value="text/xml"/>
					<language value="en-us"/>
					<url value="https://wandering-field.herokuapp.com/Content/en-us/aa126676.xml"/>
				</attachment>
			</content>
			<content>
				<attachment>
					<contentType value="application/pdf"/>
					<language value="en-us"/>
					<url value="https://wandering-field.herokuapp.com/Content/en-us/aa126676.pdf"/>
				</attachment>
			</content>
			<content>
				<attachment>
					<contentType value="application/atom+xml"/>
					<language value="es-us"/>
					<url value="https://wandering-field.herokuapp.com/Content/es-us/aa126676"/>
				</attachment>
			</content>
			<content>
				<attachment>
					<contentType value="text/html"/>
					<language value="es-us"/>
					<url value="https://wandering-field.herokuapp.com/Content/es-us/aa126676?hw.format=rhtml"/>
				</attachment>
			</content>
			<content>
				<attachment>
					<contentType value="text/xml"/>
					<language value="es-us"/>
					<url value="https://wandering-field.herokuapp.com/Content/es-us/aa126676.xml"/>
				</attachment>
			</content>
			<content>
				<attachment>
					<contentType value="application/pdf"/>
					<language value="es-us"/>
					<url value="https://wandering-field.herokuapp.com/Content/es-us/aa126676.pdf"/>
				</attachment>
			</content>
		</DocumentReference>
	</contained>
	<contained >
		<DocumentReference>
			<id value="InfoButtonResponse22"/>
			<type>
				<coding>
					<system value="http://loinc.org"/>
					<code value="34895-3"/>
					<display value="Education note"/>
				</coding>
			</type>
			<class>
				<coding>
					<system value="http://healthwise.org/doctype"/>
					<code value="special"/>
				</coding>
			</class>
			<author>
				<reference value="Organization/healthwise"/>
			</author>
			<custodian>
				<reference value="Organization/healthwise"/>
			</custodian>
			<created value="2016-08-30T22:03:41Z"/>
			<indexed value="2016-08-30T22:03:41Z"/>
			<status value="current"/>
			<docStatus>
				<coding>
					<system value="http://hl7.org/fhir/composition-status"/>
					<code value="final"/>
					<display value="final"/>
				</coding>
			</docStatus>
			<description value="Asthma and Wheezing"/>
			<content>
				<attachment>
					<contentType value="application/atom+xml"/>
					<language value="en-us"/>
					<url value="https://wandering-field.herokuapp.com/Content/en-us/aa126708"/>
				</attachment>
			</content>
			<content>
				<attachment>
					<contentType value="text/html"/>
					<language value="en-us"/>
					<url value="https://wandering-field.herokuapp.com/Content/en-us/aa126708?hw.format=rhtml"/>
				</attachment>
			</content>
			<content>
				<attachment>
					<contentType value="text/xml"/>
					<language value="en-us"/>
					<url value="https://wandering-field.herokuapp.com/Content/en-us/aa126708.xml"/>
				</attachment>
			</content>
			<content>
				<attachment>
					<contentType value="application/pdf"/>
					<language value="en-us"/>
					<url value="https://wandering-field.herokuapp.com/Content/en-us/aa126708.pdf"/>
				</attachment>
			</content>
			<content>
				<attachment>
					<contentType value="application/atom+xml"/>
					<language value="es-us"/>
					<url value="https://wandering-field.herokuapp.com/Content/es-us/aa126708"/>
				</attachment>
			</content>
			<content>
				<attachment>
					<contentType value="text/html"/>
					<language value="es-us"/>
					<url value="https://wandering-field.herokuapp.com/Content/es-us/aa126708?hw.format=rhtml"/>
				</attachment>
			</content>
			<content>
				<attachment>
					<contentType value="text/xml"/>
					<language value="es-us"/>
					<url value="https://wandering-field.herokuapp.com/Content/es-us/aa126708.xml"/>
				</attachment>
			</content>
			<content>
				<attachment>
					<contentType value="application/pdf"/>
					<language value="es-us"/>
					<url value="https://wandering-field.herokuapp.com/Content/es-us/aa126708.pdf"/>
				</attachment>
			</content>
		</DocumentReference>
	</contained>
	<contained >
		<DocumentReference>
			<id value="InfoButtonResponse23"/>
			<type>
				<coding>
					<system value="http://loinc.org"/>
					<code value="34895-3"/>
					<display value="Education note"/>
				</coding>
			</type>
			<class>
				<coding>
					<system value="http://healthwise.org/doctype"/>
					<code value="actionset"/>
				</coding>
			</class>
			<author>
				<reference value="Organization/healthwise"/>
			</author>
			<custodian>
				<reference value="Organization/healthwise"/>
			</custodian>
			<created value="2016-08-30T22:03:41Z"/>
			<indexed value="2016-08-30T22:03:41Z"/>
			<status value="current"/>
			<docStatus>
				<coding>
					<system value="http://hl7.org/fhir/composition-status"/>
					<code value="final"/>
					<display value="final"/>
				</coding>
			</docStatus>
			<description value="Asthma: Measuring Peak Flow"/>
			<content>
				<attachment>
					<contentType value="application/atom+xml"/>
					<language value="en-us"/>
					<url value="https://wandering-field.herokuapp.com/Content/en-us/aa6664"/>
				</attachment>
			</content>
			<content>
				<attachment>
					<contentType value="text/html"/>
					<language value="en-us"/>
					<url value="https://wandering-field.herokuapp.com/Content/en-us/aa6664?hw.format=rhtml"/>
				</attachment>
			</content>
			<content>
				<attachment>
					<contentType value="text/xml"/>
					<language value="en-us"/>
					<url value="https://wandering-field.herokuapp.com/Content/en-us/aa6664.xml"/>
				</attachment>
			</content>
			<content>
				<attachment>
					<contentType value="application/pdf"/>
					<language value="en-us"/>
					<url value="https://wandering-field.herokuapp.com/Content/en-us/aa6664.pdf"/>
				</attachment>
			</content>
			<content>
				<attachment>
					<contentType value="application/atom+xml"/>
					<language value="es-us"/>
					<url value="https://wandering-field.herokuapp.com/Content/es-us/aa6664"/>
				</attachment>
			</content>
			<content>
				<attachment>
					<contentType value="text/html"/>
					<language value="es-us"/>
					<url value="https://wandering-field.herokuapp.com/Content/es-us/aa6664?hw.format=rhtml"/>
				</attachment>
			</content>
			<content>
				<attachment>
					<contentType value="text/xml"/>
					<language value="es-us"/>
					<url value="https://wandering-field.herokuapp.com/Content/es-us/aa6664.xml"/>
				</attachment>
			</content>
			<content>
				<attachment>
					<contentType value="application/pdf"/>
					<language value="es-us"/>
					<url value="https://wandering-field.herokuapp.com/Content/es-us/aa6664.pdf"/>
				</attachment>
			</content>
		</DocumentReference>
	</contained>
	<contained >
		<DocumentReference>
			<id value="InfoButtonResponse24"/>
			<type>
				<coding>
					<system value="http://loinc.org"/>
					<code value="34895-3"/>
					<display value="Education note"/>
				</coding>
			</type>
			<class>
				<coding>
					<system value="http://healthwise.org/doctype"/>
					<code value="actionset"/>
				</coding>
			</class>
			<author>
				<reference value="Organization/healthwise"/>
			</author>
			<custodian>
				<reference value="Organization/healthwise"/>
			</custodian>
			<created value="2016-08-30T22:03:41Z"/>
			<indexed value="2016-08-30T22:03:41Z"/>
			<status value="current"/>
			<docStatus>
				<coding>
					<system value="http://hl7.org/fhir/composition-status"/>
					<code value="final"/>
					<display value="final"/>
				</coding>
			</docStatus>
			<description value="Asthma: Identifying Your Triggers"/>
			<content>
				<attachment>
					<contentType value="application/atom+xml"/>
					<language value="en-us"/>
					<url value="https://wandering-field.herokuapp.com/Content/en-us/aa6768"/>
				</attachment>
			</content>
			<content>
				<attachment>
					<contentType value="text/html"/>
					<language value="en-us"/>
					<url value="https://wandering-field.herokuapp.com/Content/en-us/aa6768?hw.format=rhtml"/>
				</attachment>
			</content>
			<content>
				<attachment>
					<contentType value="text/xml"/>
					<language value="en-us"/>
					<url value="https://wandering-field.herokuapp.com/Content/en-us/aa6768.xml"/>
				</attachment>
			</content>
			<content>
				<attachment>
					<contentType value="application/pdf"/>
					<language value="en-us"/>
					<url value="https://wandering-field.herokuapp.com/Content/en-us/aa6768.pdf"/>
				</attachment>
			</content>
			<content>
				<attachment>
					<contentType value="application/atom+xml"/>
					<language value="es-us"/>
					<url value="https://wandering-field.herokuapp.com/Content/es-us/aa6768"/>
				</attachment>
			</content>
			<content>
				<attachment>
					<contentType value="text/html"/>
					<language value="es-us"/>
					<url value="https://wandering-field.herokuapp.com/Content/es-us/aa6768?hw.format=rhtml"/>
				</attachment>
			</content>
			<content>
				<attachment>
					<contentType value="text/xml"/>
					<language value="es-us"/>
					<url value="https://wandering-field.herokuapp.com/Content/es-us/aa6768.xml"/>
				</attachment>
			</content>
			<content>
				<attachment>
					<contentType value="application/pdf"/>
					<language value="es-us"/>
					<url value="https://wandering-field.herokuapp.com/Content/es-us/aa6768.pdf"/>
				</attachment>
			</content>
		</DocumentReference>
	</contained>
	<contained >
		<DocumentReference>
			<id value="InfoButtonResponse25"/>
			<type>
				<coding>
					<system value="http://loinc.org"/>
					<code value="34895-3"/>
					<display value="Education note"/>
				</coding>
			</type>
			<class>
				<coding>
					<system value="http://healthwise.org/doctype"/>
					<code value="aftervisit"/>
				</coding>
			</class>
			<author>
				<reference value="Organization/healthwise"/>
			</author>
			<custodian>
				<reference value="Organization/healthwise"/>
			</custodian>
			<created value="2016-08-30T22:03:41Z"/>
			<indexed value="2016-08-30T22:03:41Z"/>
			<status value="current"/>
			<docStatus>
				<coding>
					<system value="http://hl7.org/fhir/composition-status"/>
					<code value="final"/>
					<display value="final"/>
				</coding>
			</docStatus>
			<description value="Learning About Asthma"/>
			<content>
				<attachment>
					<contentType value="application/atom+xml"/>
					<language value="en-us"/>
					<url value="https://wandering-field.herokuapp.com/Content/en-us/abk9366"/>
				</attachment>
			</content>
			<content>
				<attachment>
					<contentType value="text/html"/>
					<language value="en-us"/>
					<url value="https://wandering-field.herokuapp.com/Content/en-us/abk9366?hw.format=rhtml"/>
				</attachment>
			</content>
			<content>
				<attachment>
					<contentType value="text/xml"/>
					<language value="en-us"/>
					<url value="https://wandering-field.herokuapp.com/Content/en-us/abk9366.xml"/>
				</attachment>
			</content>
			<content>
				<attachment>
					<contentType value="application/pdf"/>
					<language value="en-us"/>
					<url value="https://wandering-field.herokuapp.com/Content/en-us/abk9366.pdf"/>
				</attachment>
			</content>
			<content>
				<attachment>
					<contentType value="application/atom+xml"/>
					<language value="es-us"/>
					<url value="https://wandering-field.herokuapp.com/Content/es-us/abk9366"/>
				</attachment>
			</content>
			<content>
				<attachment>
					<contentType value="text/html"/>
					<language value="es-us"/>
					<url value="https://wandering-field.herokuapp.com/Content/es-us/abk9366?hw.format=rhtml"/>
				</attachment>
			</content>
			<content>
				<attachment>
					<contentType value="text/xml"/>
					<language value="es-us"/>
					<url value="https://wandering-field.herokuapp.com/Content/es-us/abk9366.xml"/>
				</attachment>
			</content>
			<content>
				<attachment>
					<contentType value="application/pdf"/>
					<language value="es-us"/>
					<url value="https://wandering-field.herokuapp.com/Content/es-us/abk9366.pdf"/>
				</attachment>
			</content>
		</DocumentReference>
	</contained>
	<contained >
		<DocumentReference>
			<id value="InfoButtonResponse26"/>
			<type>
				<coding>
					<system value="http://loinc.org"/>
					<code value="34895-3"/>
					<display value="Education note"/>
				</coding>
			</type>
			<class>
				<coding>
					<system value="http://healthwise.org/doctype"/>
					<code value="multimedia"/>
				</coding>
			</class>
			<author>
				<reference value="Organization/healthwise"/>
			</author>
			<custodian>
				<reference value="Organization/healthwise"/>
			</custodian>
			<created value="2016-08-30T22:03:41Z"/>
			<indexed value="2016-08-30T22:03:41Z"/>
			<status value="current"/>
			<docStatus>
				<coding>
					<system value="http://hl7.org/fhir/composition-status"/>
					<code value="final"/>
					<display value="final"/>
				</coding>
			</docStatus>
			<description value="Asthma: Using an Inhaler and Spacer"/>
			<content>
				<attachment>
					<contentType value="application/atom+xml"/>
					<language value="en-us"/>
					<url value="https://wandering-field.herokuapp.com/Content/en-us/abl3223"/>
				</attachment>
			</content>
			<content>
				<attachment>
					<contentType value="text/html"/>
					<language value="en-us"/>
					<url value="https://wandering-field.herokuapp.com/Content/en-us/abl3223?hw.format=rhtml"/>
				</attachment>
			</content>
			<content>
				<attachment>
					<contentType value="text/xml"/>
					<language value="en-us"/>
					<url value="https://wandering-field.herokuapp.com/Content/en-us/abl3223.xml"/>
				</attachment>
			</content>
		</DocumentReference>
	</contained>
	<contained >
		<DocumentReference>
			<id value="InfoButtonResponse27"/>
			<type>
				<coding>
					<system value="http://loinc.org"/>
					<code value="34895-3"/>
					<display value="Education note"/>
				</coding>
			</type>
			<class>
				<coding>
					<system value="http://healthwise.org/doctype"/>
					<code value="multimedia"/>
				</coding>
			</class>
			<author>
				<reference value="Organization/healthwise"/>
			</author>
			<custodian>
				<reference value="Organization/healthwise"/>
			</custodian>
			<created value="2016-08-30T22:03:41Z"/>
			<indexed value="2016-08-30T22:03:41Z"/>
			<status value="current"/>
			<docStatus>
				<coding>
					<system value="http://hl7.org/fhir/composition-status"/>
					<code value="final"/>
					<display value="final"/>
				</coding>
			</docStatus>
			<description value="Stories From People Controlling Their Asthma"/>
			<content>
				<attachment>
					<contentType value="application/atom+xml"/>
					<language value="en-us"/>
					<url value="https://wandering-field.herokuapp.com/Content/en-us/abl3321"/>
				</attachment>
			</content>
			<content>
				<attachment>
					<contentType value="text/html"/>
					<language value="en-us"/>
					<url value="https://wandering-field.herokuapp.com/Content/en-us/abl3321?hw.format=rhtml"/>
				</attachment>
			</content>
			<content>
				<attachment>
					<contentType value="text/xml"/>
					<language value="en-us"/>
					<url value="https://wandering-field.herokuapp.com/Content/en-us/abl3321.xml"/>
				</attachment>
			</content>
		</DocumentReference>
	</contained>
	<contained >
		<DocumentReference>
			<id value="InfoButtonResponse28"/>
			<type>
				<coding>
					<system value="http://loinc.org"/>
					<code value="34895-3"/>
					<display value="Education note"/>
				</coding>
			</type>
			<class>
				<coding>
					<system value="http://healthwise.org/doctype"/>
					<code value="multimedia"/>
				</coding>
			</class>
			<author>
				<reference value="Organization/healthwise"/>
			</author>
			<custodian>
				<reference value="Organization/healthwise"/>
			</custodian>
			<created value="2016-08-30T22:03:41Z"/>
			<indexed value="2016-08-30T22:03:41Z"/>
			<status value="current"/>
			<docStatus>
				<coding>
					<system value="http://hl7.org/fhir/composition-status"/>
					<code value="final"/>
					<display value="final"/>
				</coding>
			</docStatus>
			<description value="Asthma: Myths About Inhaled Steroids"/>
			<content>
				<attachment>
					<contentType value="application/atom+xml"/>
					<language value="en-us"/>
					<url value="https://wandering-field.herokuapp.com/Content/en-us/abl3331"/>
				</attachment>
			</content>
			<content>
				<attachment>
					<contentType value="text/html"/>
					<language value="en-us"/>
					<url value="https://wandering-field.herokuapp.com/Content/en-us/abl3331?hw.format=rhtml"/>
				</attachment>
			</content>
			<content>
				<attachment>
					<contentType value="text/xml"/>
					<language value="en-us"/>
					<url value="https://wandering-field.herokuapp.com/Content/en-us/abl3331.xml"/>
				</attachment>
			</content>
		</DocumentReference>
	</contained>
	<contained >
		<DocumentReference>
			<id value="InfoButtonResponse29"/>
			<type>
				<coding>
					<system value="http://loinc.org"/>
					<code value="34895-3"/>
					<display value="Education note"/>
				</coding>
			</type>
			<class>
				<coding>
					<system value="http://healthwise.org/doctype"/>
					<code value="multimedia"/>
				</coding>
			</class>
			<author>
				<reference value="Organization/healthwise"/>
			</author>
			<custodian>
				<reference value="Organization/healthwise"/>
			</custodian>
			<created value="2016-08-30T22:03:41Z"/>
			<indexed value="2016-08-30T22:03:41Z"/>
			<status value="current"/>
			<docStatus>
				<coding>
					<system value="http://hl7.org/fhir/composition-status"/>
					<code value="final"/>
					<display value="final"/>
				</coding>
			</docStatus>
			<description value="Dealing With Asthma Triggers"/>
			<content>
				<attachment>
					<contentType value="application/atom+xml"/>
					<language value="en-us"/>
					<url value="https://wandering-field.herokuapp.com/Content/en-us/abl3339"/>
				</attachment>
			</content>
			<content>
				<attachment>
					<contentType value="text/html"/>
					<language value="en-us"/>
					<url value="https://wandering-field.herokuapp.com/Content/en-us/abl3339?hw.format=rhtml"/>
				</attachment>
			</content>
			<content>
				<attachment>
					<contentType value="text/xml"/>
					<language value="en-us"/>
					<url value="https://wandering-field.herokuapp.com/Content/en-us/abl3339.xml"/>
				</attachment>
			</content>
		</DocumentReference>
	</contained>
	<contained >
		<DocumentReference>
			<id value="InfoButtonResponse30"/>
			<type>
				<coding>
					<system value="http://loinc.org"/>
					<code value="34895-3"/>
					<display value="Education note"/>
				</coding>
			</type>
			<class>
				<coding>
					<system value="http://healthwise.org/doctype"/>
					<code value="caresupport"/>
				</coding>
			</class>
			<author>
				<reference value="Organization/healthwise"/>
			</author>
			<custodian>
				<reference value="Organization/healthwise"/>
			</custodian>
			<created value="2016-08-30T22:03:41Z"/>
			<indexed value="2016-08-30T22:03:41Z"/>
			<status value="current"/>
			<docStatus>
				<coding>
					<system value="http://hl7.org/fhir/composition-status"/>
					<code value="final"/>
					<display value="final"/>
				</coding>
			</docStatus>
			<description value="Asthma: Your Action Plan"/>
			<content>
				<attachment>
					<contentType value="application/pdf"/>
					<language value="en-us"/>
					<url value="https://wandering-field.herokuapp.com/Content/en-us/abn2445.pdf"/>
				</attachment>
			</content>
			<content>
				<attachment>
					<contentType value="application/pdf"/>
					<language value="es-us"/>
					<url value="https://wandering-field.herokuapp.com/Content/es-us/abn2445.pdf"/>
				</attachment>
			</content>
		</DocumentReference>
	</contained>
	<contained >
		<DocumentReference>
			<id value="InfoButtonResponse31"/>
			<type>
				<coding>
					<system value="http://loinc.org"/>
					<code value="34895-3"/>
					<display value="Education note"/>
				</coding>
			</type>
			<class>
				<coding>
					<system value="http://healthwise.org/doctype"/>
					<code value="multimedia"/>
				</coding>
			</class>
			<author>
				<reference value="Organization/healthwise"/>
			</author>
			<custodian>
				<reference value="Organization/healthwise"/>
			</custodian>
			<created value="2016-08-30T22:03:41Z"/>
			<indexed value="2016-08-30T22:03:41Z"/>
			<status value="current"/>
			<docStatus>
				<coding>
					<system value="http://hl7.org/fhir/composition-status"/>
					<code value="final"/>
					<display value="final"/>
				</coding>
			</docStatus>
			<description value="Asthma: The Importance of Controller Medicines"/>
			<content>
				<attachment>
					<contentType value="application/atom+xml"/>
					<language value="en-us"/>
					<url value="https://wandering-field.herokuapp.com/Content/en-us/abo2350"/>
				</attachment>
			</content>
			<content>
				<attachment>
					<contentType value="text/html"/>
					<language value="en-us"/>
					<url value="https://wandering-field.herokuapp.com/Content/en-us/abo2350?hw.format=rhtml"/>
				</attachment>
			</content>
			<content>
				<attachment>
					<contentType value="text/xml"/>
					<language value="en-us"/>
					<url value="https://wandering-field.herokuapp.com/Content/en-us/abo2350.xml"/>
				</attachment>
			</content>
		</DocumentReference>
	</contained>
	<contained >
		<DocumentReference>
			<id value="InfoButtonResponse32"/>
			<type>
				<coding>
					<system value="http://loinc.org"/>
					<code value="34895-3"/>
					<display value="Education note"/>
				</coding>
			</type>
			<class>
				<coding>
					<system value="http://healthwise.org/doctype"/>
					<code value="multimedia"/>
				</coding>
			</class>
			<author>
				<reference value="Organization/healthwise"/>
			</author>
			<custodian>
				<reference value="Organization/healthwise"/>
			</custodian>
			<created value="2016-08-30T22:03:41Z"/>
			<indexed value="2016-08-30T22:03:41Z"/>
			<status value="current"/>
			<docStatus>
				<coding>
					<system value="http://hl7.org/fhir/composition-status"/>
					<code value="final"/>
					<display value="final"/>
				</coding>
			</docStatus>
			<description value="Asthma: What Happens in Your Lungs"/>
			<content>
				<attachment>
					<contentType value="application/atom+xml"/>
					<language value="en-us"/>
					<url value="https://wandering-field.herokuapp.com/Content/en-us/abo2359"/>
				</attachment>
			</content>
			<content>
				<attachment>
					<contentType value="text/html"/>
					<language value="en-us"/>
					<url value="https://wandering-field.herokuapp.com/Content/en-us/abo2359?hw.format=rhtml"/>
				</attachment>
			</content>
			<content>
				<attachment>
					<contentType value="text/xml"/>
					<language value="en-us"/>
					<url value="https://wandering-field.herokuapp.com/Content/en-us/abo2359.xml"/>
				</attachment>
			</content>
		</DocumentReference>
	</contained>
	<contained >
		<DocumentReference>
			<id value="InfoButtonResponse33"/>
			<type>
				<coding>
					<system value="http://loinc.org"/>
					<code value="34895-3"/>
					<display value="Education note"/>
				</coding>
			</type>
			<class>
				<coding>
					<system value="http://healthwise.org/doctype"/>
					<code value="multimedia"/>
				</coding>
			</class>
			<author>
				<reference value="Organization/healthwise"/>
			</author>
			<custodian>
				<reference value="Organization/healthwise"/>
			</custodian>
			<created value="2016-08-30T22:03:41Z"/>
			<indexed value="2016-08-30T22:03:41Z"/>
			<status value="current"/>
			<docStatus>
				<coding>
					<system value="http://hl7.org/fhir/composition-status"/>
					<code value="final"/>
					<display value="final"/>
				</coding>
			</docStatus>
			<description value="Using a Metered-Dose Inhaler Without a Spacer"/>
			<content>
				<attachment>
					<contentType value="application/atom+xml"/>
					<language value="en-us"/>
					<url value="https://wandering-field.herokuapp.com/Content/en-us/abo5495"/>
				</attachment>
			</content>
			<content>
				<attachment>
					<contentType value="text/html"/>
					<language value="en-us"/>
					<url value="https://wandering-field.herokuapp.com/Content/en-us/abo5495?hw.format=rhtml"/>
				</attachment>
			</content>
			<content>
				<attachment>
					<contentType value="text/xml"/>
					<language value="en-us"/>
					<url value="https://wandering-field.herokuapp.com/Content/en-us/abo5495.xml"/>
				</attachment>
			</content>
		</DocumentReference>
	</contained>
	<contained >
		<DocumentReference>
			<id value="InfoButtonResponse34"/>
			<type>
				<coding>
					<system value="http://loinc.org"/>
					<code value="34895-3"/>
					<display value="Education note"/>
				</coding>
			</type>
			<class>
				<coding>
					<system value="http://healthwise.org/doctype"/>
					<code value="multimedia"/>
				</coding>
			</class>
			<author>
				<reference value="Organization/healthwise"/>
			</author>
			<custodian>
				<reference value="Organization/healthwise"/>
			</custodian>
			<created value="2016-08-30T22:03:41Z"/>
			<indexed value="2016-08-30T22:03:41Z"/>
			<status value="current"/>
			<docStatus>
				<coding>
					<system value="http://hl7.org/fhir/composition-status"/>
					<code value="final"/>
					<display value="final"/>
				</coding>
			</docStatus>
			<description value="Using a Dry Powder Inhaler"/>
			<content>
				<attachment>
					<contentType value="application/atom+xml"/>
					<language value="en-us"/>
					<url value="https://wandering-field.herokuapp.com/Content/en-us/abo5507"/>
				</attachment>
			</content>
			<content>
				<attachment>
					<contentType value="text/html"/>
					<language value="en-us"/>
					<url value="https://wandering-field.herokuapp.com/Content/en-us/abo5507?hw.format=rhtml"/>
				</attachment>
			</content>
			<content>
				<attachment>
					<contentType value="text/xml"/>
					<language value="en-us"/>
					<url value="https://wandering-field.herokuapp.com/Content/en-us/abo5507.xml"/>
				</attachment>
			</content>
		</DocumentReference>
	</contained>
	<contained >
		<DocumentReference>
			<id value="InfoButtonResponse35"/>
			<type>
				<coding>
					<system value="http://loinc.org"/>
					<code value="34895-3"/>
					<display value="Education note"/>
				</coding>
			</type>
			<class>
				<coding>
					<system value="http://healthwise.org/doctype"/>
					<code value="multimedia"/>
				</coding>
			</class>
			<author>
				<reference value="Organization/healthwise"/>
			</author>
			<custodian>
				<reference value="Organization/healthwise"/>
			</custodian>
			<created value="2016-08-30T22:03:41Z"/>
			<indexed value="2016-08-30T22:03:41Z"/>
			<status value="current"/>
			<docStatus>
				<coding>
					<system value="http://hl7.org/fhir/composition-status"/>
					<code value="final"/>
					<display value="final"/>
				</coding>
			</docStatus>
			<description value="Checking Peak Flow"/>
			<content>
				<attachment>
					<contentType value="application/atom+xml"/>
					<language value="en-us"/>
					<url value="https://wandering-field.herokuapp.com/Content/en-us/abo5513"/>
				</attachment>
			</content>
			<content>
				<attachment>
					<contentType value="text/html"/>
					<language value="en-us"/>
					<url value="https://wandering-field.herokuapp.com/Content/en-us/abo5513?hw.format=rhtml"/>
				</attachment>
			</content>
			<content>
				<attachment>
					<contentType value="text/xml"/>
					<language value="en-us"/>
					<url value="https://wandering-field.herokuapp.com/Content/en-us/abo5513.xml"/>
				</attachment>
			</content>
		</DocumentReference>
	</contained>
	<contained >
		<DocumentReference>
			<id value="InfoButtonResponse36"/>
			<type>
				<coding>
					<system value="http://loinc.org"/>
					<code value="34895-3"/>
					<display value="Education note"/>
				</coding>
			</type>
			<class>
				<coding>
					<system value="http://healthwise.org/doctype"/>
					<code value="special"/>
				</coding>
			</class>
			<author>
				<reference value="Organization/healthwise"/>
			</author>
			<custodian>
				<reference value="Organization/healthwise"/>
			</custodian>
			<created value="2016-08-30T22:03:41Z"/>
			<indexed value="2016-08-30T22:03:41Z"/>
			<status value="current"/>
			<docStatus>
				<coding>
					<system value="http://hl7.org/fhir/composition-status"/>
					<code value="final"/>
					<display value="final"/>
				</coding>
			</docStatus>
			<description value="Steroid Medicine for Asthma: Myths and Facts"/>
			<content>
				<attachment>
					<contentType value="application/atom+xml"/>
					<language value="en-us"/>
					<url value="https://wandering-field.herokuapp.com/Content/en-us/abo6502"/>
				</attachment>
			</content>
			<content>
				<attachment>
					<contentType value="text/html"/>
					<language value="en-us"/>
					<url value="https://wandering-field.herokuapp.com/Content/en-us/abo6502?hw.format=rhtml"/>
				</attachment>
			</content>
			<content>
				<attachment>
					<contentType value="text/xml"/>
					<language value="en-us"/>
					<url value="https://wandering-field.herokuapp.com/Content/en-us/abo6502.xml"/>
				</attachment>
			</content>
			<content>
				<attachment>
					<contentType value="application/pdf"/>
					<language value="en-us"/>
					<url value="https://wandering-field.herokuapp.com/Content/en-us/abo6502.pdf"/>
				</attachment>
			</content>
			<content>
				<attachment>
					<contentType value="application/atom+xml"/>
					<language value="es-us"/>
					<url value="https://wandering-field.herokuapp.com/Content/es-us/abo6502"/>
				</attachment>
			</content>
			<content>
				<attachment>
					<contentType value="text/html"/>
					<language value="es-us"/>
					<url value="https://wandering-field.herokuapp.com/Content/es-us/abo6502?hw.format=rhtml"/>
				</attachment>
			</content>
			<content>
				<attachment>
					<contentType value="text/xml"/>
					<language value="es-us"/>
					<url value="https://wandering-field.herokuapp.com/Content/es-us/abo6502.xml"/>
				</attachment>
			</content>
			<content>
				<attachment>
					<contentType value="application/pdf"/>
					<language value="es-us"/>
					<url value="https://wandering-field.herokuapp.com/Content/es-us/abo6502.pdf"/>
				</attachment>
			</content>
		</DocumentReference>
	</contained>
	<contained >
		<DocumentReference>
			<id value="InfoButtonResponse37"/>
			<type>
				<coding>
					<system value="http://loinc.org"/>
					<code value="34895-3"/>
					<display value="Education note"/>
				</coding>
			</type>
			<class>
				<coding>
					<system value="http://healthwise.org/doctype"/>
					<code value="special"/>
				</coding>
			</class>
			<author>
				<reference value="Organization/healthwise"/>
			</author>
			<custodian>
				<reference value="Organization/healthwise"/>
			</custodian>
			<created value="2016-08-30T22:03:41Z"/>
			<indexed value="2016-08-30T22:03:41Z"/>
			<status value="current"/>
			<docStatus>
				<coding>
					<system value="http://hl7.org/fhir/composition-status"/>
					<code value="final"/>
					<display value="final"/>
				</coding>
			</docStatus>
			<description value="Classification of Asthma"/>
			<content>
				<attachment>
					<contentType value="application/atom+xml"/>
					<language value="en-us"/>
					<url value="https://wandering-field.herokuapp.com/Content/en-us/hw161158"/>
				</attachment>
			</content>
			<content>
				<attachment>
					<contentType value="text/html"/>
					<language value="en-us"/>
					<url value="https://wandering-field.herokuapp.com/Content/en-us/hw161158?hw.format=rhtml"/>
				</attachment>
			</content>
			<content>
				<attachment>
					<contentType value="text/xml"/>
					<language value="en-us"/>
					<url value="https://wandering-field.herokuapp.com/Content/en-us/hw161158.xml"/>
				</attachment>
			</content>
			<content>
				<attachment>
					<contentType value="application/pdf"/>
					<language value="en-us"/>
					<url value="https://wandering-field.herokuapp.com/Content/en-us/hw161158.pdf"/>
				</attachment>
			</content>
			<content>
				<attachment>
					<contentType value="application/atom+xml"/>
					<language value="es-us"/>
					<url value="https://wandering-field.herokuapp.com/Content/es-us/hw161158"/>
				</attachment>
			</content>
			<content>
				<attachment>
					<contentType value="text/html"/>
					<language value="es-us"/>
					<url value="https://wandering-field.herokuapp.com/Content/es-us/hw161158?hw.format=rhtml"/>
				</attachment>
			</content>
			<content>
				<attachment>
					<contentType value="text/xml"/>
					<language value="es-us"/>
					<url value="https://wandering-field.herokuapp.com/Content/es-us/hw161158.xml"/>
				</attachment>
			</content>
			<content>
				<attachment>
					<contentType value="application/pdf"/>
					<language value="es-us"/>
					<url value="https://wandering-field.herokuapp.com/Content/es-us/hw161158.pdf"/>
				</attachment>
			</content>
		</DocumentReference>
	</contained>
	<contained >
		<DocumentReference>
			<id value="InfoButtonResponse38"/>
			<type>
				<coding>
					<system value="http://loinc.org"/>
					<code value="34895-3"/>
					<display value="Education note"/>
				</coding>
			</type>
			<class>
				<coding>
					<system value="http://healthwise.org/doctype"/>
					<code value="special"/>
				</coding>
			</class>
			<author>
				<reference value="Organization/healthwise"/>
			</author>
			<custodian>
				<reference value="Organization/healthwise"/>
			</custodian>
			<created value="2016-08-30T22:03:41Z"/>
			<indexed value="2016-08-30T22:03:41Z"/>
			<status value="current"/>
			<docStatus>
				<coding>
					<system value="http://hl7.org/fhir/composition-status"/>
					<code value="final"/>
					<display value="final"/>
				</coding>
			</docStatus>
			<description value="Challenge Tests for Asthma"/>
			<content>
				<attachment>
					<contentType value="application/atom+xml"/>
					<language value="en-us"/>
					<url value="https://wandering-field.herokuapp.com/Content/en-us/hw161312"/>
				</attachment>
			</content>
			<content>
				<attachment>
					<contentType value="text/html"/>
					<language value="en-us"/>
					<url value="https://wandering-field.herokuapp.com/Content/en-us/hw161312?hw.format=rhtml"/>
				</attachment>
			</content>
			<content>
				<attachment>
					<contentType value="text/xml"/>
					<language value="en-us"/>
					<url value="https://wandering-field.herokuapp.com/Content/en-us/hw161312.xml"/>
				</attachment>
			</content>
			<content>
				<attachment>
					<contentType value="application/pdf"/>
					<language value="en-us"/>
					<url value="https://wandering-field.herokuapp.com/Content/en-us/hw161312.pdf"/>
				</attachment>
			</content>
			<content>
				<attachment>
					<contentType value="application/atom+xml"/>
					<language value="es-us"/>
					<url value="https://wandering-field.herokuapp.com/Content/es-us/hw161312"/>
				</attachment>
			</content>
			<content>
				<attachment>
					<contentType value="text/html"/>
					<language value="es-us"/>
					<url value="https://wandering-field.herokuapp.com/Content/es-us/hw161312?hw.format=rhtml"/>
				</attachment>
			</content>
			<content>
				<attachment>
					<contentType value="text/xml"/>
					<language value="es-us"/>
					<url value="https://wandering-field.herokuapp.com/Content/es-us/hw161312.xml"/>
				</attachment>
			</content>
			<content>
				<attachment>
					<contentType value="application/pdf"/>
					<language value="es-us"/>
					<url value="https://wandering-field.herokuapp.com/Content/es-us/hw161312.pdf"/>
				</attachment>
			</content>
		</DocumentReference>
	</contained>
	<contained >
		<DocumentReference>
			<id value="InfoButtonResponse39"/>
			<type>
				<coding>
					<system value="http://loinc.org"/>
					<code value="34895-3"/>
					<display value="Education note"/>
				</coding>
			</type>
			<class>
				<coding>
					<system value="http://healthwise.org/doctype"/>
					<code value="special"/>
				</coding>
			</class>
			<author>
				<reference value="Organization/healthwise"/>
			</author>
			<custodian>
				<reference value="Organization/healthwise"/>
			</custodian>
			<created value="2016-08-30T22:03:41Z"/>
			<indexed value="2016-08-30T22:03:41Z"/>
			<status value="current"/>
			<docStatus>
				<coding>
					<system value="http://hl7.org/fhir/composition-status"/>
					<code value="final"/>
					<display value="final"/>
				</coding>
			</docStatus>
			<description value="Asthma Action Plan: Yellow Zone"/>
			<content>
				<attachment>
					<contentType value="application/atom+xml"/>
					<language value="en-us"/>
					<url value="https://wandering-field.herokuapp.com/Content/en-us/hw161423"/>
				</attachment>
			</content>
			<content>
				<attachment>
					<contentType value="text/html"/>
					<language value="en-us"/>
					<url value="https://wandering-field.herokuapp.com/Content/en-us/hw161423?hw.format=rhtml"/>
				</attachment>
			</content>
			<content>
				<attachment>
					<contentType value="text/xml"/>
					<language value="en-us"/>
					<url value="https://wandering-field.herokuapp.com/Content/en-us/hw161423.xml"/>
				</attachment>
			</content>
			<content>
				<attachment>
					<contentType value="application/pdf"/>
					<language value="en-us"/>
					<url value="https://wandering-field.herokuapp.com/Content/en-us/hw161423.pdf"/>
				</attachment>
			</content>
			<content>
				<attachment>
					<contentType value="application/atom+xml"/>
					<language value="es-us"/>
					<url value="https://wandering-field.herokuapp.com/Content/es-us/hw161423"/>
				</attachment>
			</content>
			<content>
				<attachment>
					<contentType value="text/html"/>
					<language value="es-us"/>
					<url value="https://wandering-field.herokuapp.com/Content/es-us/hw161423?hw.format=rhtml"/>
				</attachment>
			</content>
			<content>
				<attachment>
					<contentType value="text/xml"/>
					<language value="es-us"/>
					<url value="https://wandering-field.herokuapp.com/Content/es-us/hw161423.xml"/>
				</attachment>
			</content>
			<content>
				<attachment>
					<contentType value="application/pdf"/>
					<language value="es-us"/>
					<url value="https://wandering-field.herokuapp.com/Content/es-us/hw161423.pdf"/>
				</attachment>
			</content>
		</DocumentReference>
	</contained>
	<contained >
		<DocumentReference>
			<id value="InfoButtonResponse40"/>
			<type>
				<coding>
					<system value="http://loinc.org"/>
					<code value="34895-3"/>
					<display value="Education note"/>
				</coding>
			</type>
			<class>
				<coding>
					<system value="http://healthwise.org/doctype"/>
					<code value="special"/>
				</coding>
			</class>
			<author>
				<reference value="Organization/healthwise"/>
			</author>
			<custodian>
				<reference value="Organization/healthwise"/>
			</custodian>
			<created value="2016-08-30T22:03:41Z"/>
			<indexed value="2016-08-30T22:03:41Z"/>
			<status value="current"/>
			<docStatus>
				<coding>
					<system value="http://hl7.org/fhir/composition-status"/>
					<code value="final"/>
					<display value="final"/>
				</coding>
			</docStatus>
			<description value="Asthma Triggers"/>
			<content>
				<attachment>
					<contentType value="application/atom+xml"/>
					<language value="en-us"/>
					<url value="https://wandering-field.herokuapp.com/Content/en-us/hw161500"/>
				</attachment>
			</content>
			<content>
				<attachment>
					<contentType value="text/html"/>
					<language value="en-us"/>
					<url value="https://wandering-field.herokuapp.com/Content/en-us/hw161500?hw.format=rhtml"/>
				</attachment>
			</content>
			<content>
				<attachment>
					<contentType value="text/xml"/>
					<language value="en-us"/>
					<url value="https://wandering-field.herokuapp.com/Content/en-us/hw161500.xml"/>
				</attachment>
			</content>
			<content>
				<attachment>
					<contentType value="application/pdf"/>
					<language value="en-us"/>
					<url value="https://wandering-field.herokuapp.com/Content/en-us/hw161500.pdf"/>
				</attachment>
			</content>
			<content>
				<attachment>
					<contentType value="application/atom+xml"/>
					<language value="es-us"/>
					<url value="https://wandering-field.herokuapp.com/Content/es-us/hw161500"/>
				</attachment>
			</content>
			<content>
				<attachment>
					<contentType value="text/html"/>
					<language value="es-us"/>
					<url value="https://wandering-field.herokuapp.com/Content/es-us/hw161500?hw.format=rhtml"/>
				</attachment>
			</content>
			<content>
				<attachment>
					<contentType value="text/xml"/>
					<language value="es-us"/>
					<url value="https://wandering-field.herokuapp.com/Content/es-us/hw161500.xml"/>
				</attachment>
			</content>
			<content>
				<attachment>
					<contentType value="application/pdf"/>
					<language value="es-us"/>
					<url value="https://wandering-field.herokuapp.com/Content/es-us/hw161500.pdf"/>
				</attachment>
			</content>
		</DocumentReference>
	</contained>
	<contained >
		<DocumentReference>
			<id value="InfoButtonResponse41"/>
			<type>
				<coding>
					<system value="http://loinc.org"/>
					<code value="34895-3"/>
					<display value="Education note"/>
				</coding>
			</type>
			<class>
				<coding>
					<system value="http://healthwise.org/doctype"/>
					<code value="special"/>
				</coding>
			</class>
			<author>
				<reference value="Organization/healthwise"/>
			</author>
			<custodian>
				<reference value="Organization/healthwise"/>
			</custodian>
			<created value="2016-08-30T22:03:41Z"/>
			<indexed value="2016-08-30T22:03:41Z"/>
			<status value="current"/>
			<docStatus>
				<coding>
					<system value="http://hl7.org/fhir/composition-status"/>
					<code value="final"/>
					<display value="final"/>
				</coding>
			</docStatus>
			<description value="Asthma Action Plan: Red Zone"/>
			<content>
				<attachment>
					<contentType value="application/atom+xml"/>
					<language value="en-us"/>
					<url value="https://wandering-field.herokuapp.com/Content/en-us/hw161511"/>
				</attachment>
			</content>
			<content>
				<attachment>
					<contentType value="text/html"/>
					<language value="en-us"/>
					<url value="https://wandering-field.herokuapp.com/Content/en-us/hw161511?hw.format=rhtml"/>
				</attachment>
			</content>
			<content>
				<attachment>
					<contentType value="text/xml"/>
					<language value="en-us"/>
					<url value="https://wandering-field.herokuapp.com/Content/en-us/hw161511.xml"/>
				</attachment>
			</content>
			<content>
				<attachment>
					<contentType value="application/pdf"/>
					<language value="en-us"/>
					<url value="https://wandering-field.herokuapp.com/Content/en-us/hw161511.pdf"/>
				</attachment>
			</content>
			<content>
				<attachment>
					<contentType value="application/atom+xml"/>
					<language value="es-us"/>
					<url value="https://wandering-field.herokuapp.com/Content/es-us/hw161511"/>
				</attachment>
			</content>
			<content>
				<attachment>
					<contentType value="text/html"/>
					<language value="es-us"/>
					<url value="https://wandering-field.herokuapp.com/Content/es-us/hw161511?hw.format=rhtml"/>
				</attachment>
			</content>
			<content>
				<attachment>
					<contentType value="text/xml"/>
					<language value="es-us"/>
					<url value="https://wandering-field.herokuapp.com/Content/es-us/hw161511.xml"/>
				</attachment>
			</content>
			<content>
				<attachment>
					<contentType value="application/pdf"/>
					<language value="es-us"/>
					<url value="https://wandering-field.herokuapp.com/Content/es-us/hw161511.pdf"/>
				</attachment>
			</content>
		</DocumentReference>
	</contained>
	<contained >
		<DocumentReference>
			<id value="InfoButtonResponse42"/>
			<type>
				<coding>
					<system value="http://loinc.org"/>
					<code value="34895-3"/>
					<display value="Education note"/>
				</coding>
			</type>
			<class>
				<coding>
					<system value="http://healthwise.org/doctype"/>
					<code value="special"/>
				</coding>
			</class>
			<author>
				<reference value="Organization/healthwise"/>
			</author>
			<custodian>
				<reference value="Organization/healthwise"/>
			</custodian>
			<created value="2016-08-30T22:03:41Z"/>
			<indexed value="2016-08-30T22:03:41Z"/>
			<status value="current"/>
			<docStatus>
				<coding>
					<system value="http://hl7.org/fhir/composition-status"/>
					<code value="final"/>
					<display value="final"/>
				</coding>
			</docStatus>
			<description value="Asthma and GERD"/>
			<content>
				<attachment>
					<contentType value="application/atom+xml"/>
					<language value="en-us"/>
					<url value="https://wandering-field.herokuapp.com/Content/en-us/hw161526"/>
				</attachment>
			</content>
			<content>
				<attachment>
					<contentType value="text/html"/>
					<language value="en-us"/>
					<url value="https://wandering-field.herokuapp.com/Content/en-us/hw161526?hw.format=rhtml"/>
				</attachment>
			</content>
			<content>
				<attachment>
					<contentType value="text/xml"/>
					<language value="en-us"/>
					<url value="https://wandering-field.herokuapp.com/Content/en-us/hw161526.xml"/>
				</attachment>
			</content>
			<content>
				<attachment>
					<contentType value="application/pdf"/>
					<language value="en-us"/>
					<url value="https://wandering-field.herokuapp.com/Content/en-us/hw161526.pdf"/>
				</attachment>
			</content>
			<content>
				<attachment>
					<contentType value="application/atom+xml"/>
					<language value="es-us"/>
					<url value="https://wandering-field.herokuapp.com/Content/es-us/hw161526"/>
				</attachment>
			</content>
			<content>
				<attachment>
					<contentType value="text/html"/>
					<language value="es-us"/>
					<url value="https://wandering-field.herokuapp.com/Content/es-us/hw161526?hw.format=rhtml"/>
				</attachment>
			</content>
			<content>
				<attachment>
					<contentType value="text/xml"/>
					<language value="es-us"/>
					<url value="https://wandering-field.herokuapp.com/Content/es-us/hw161526.xml"/>
				</attachment>
			</content>
			<content>
				<attachment>
					<contentType value="application/pdf"/>
					<language value="es-us"/>
					<url value="https://wandering-field.herokuapp.com/Content/es-us/hw161526.pdf"/>
				</attachment>
			</content>
		</DocumentReference>
	</contained>
	<contained >
		<DocumentReference>
			<id value="InfoButtonResponse43"/>
			<type>
				<coding>
					<system value="http://loinc.org"/>
					<code value="34895-3"/>
					<display value="Education note"/>
				</coding>
			</type>
			<class>
				<coding>
					<system value="http://healthwise.org/doctype"/>
					<code value="special"/>
				</coding>
			</class>
			<author>
				<reference value="Organization/healthwise"/>
			</author>
			<custodian>
				<reference value="Organization/healthwise"/>
			</custodian>
			<created value="2016-08-30T22:03:41Z"/>
			<indexed value="2016-08-30T22:03:41Z"/>
			<status value="current"/>
			<docStatus>
				<coding>
					<system value="http://hl7.org/fhir/composition-status"/>
					<code value="final"/>
					<display value="final"/>
				</coding>
			</docStatus>
			<description value="Occupational Asthma"/>
			<content>
				<attachment>
					<contentType value="application/atom+xml"/>
					<language value="en-us"/>
					<url value="https://wandering-field.herokuapp.com/Content/en-us/hw161562"/>
				</attachment>
			</content>
			<content>
				<attachment>
					<contentType value="text/html"/>
					<language value="en-us"/>
					<url value="https://wandering-field.herokuapp.com/Content/en-us/hw161562?hw.format=rhtml"/>
				</attachment>
			</content>
			<content>
				<attachment>
					<contentType value="text/xml"/>
					<language value="en-us"/>
					<url value="https://wandering-field.herokuapp.com/Content/en-us/hw161562.xml"/>
				</attachment>
			</content>
			<content>
				<attachment>
					<contentType value="application/pdf"/>
					<language value="en-us"/>
					<url value="https://wandering-field.herokuapp.com/Content/en-us/hw161562.pdf"/>
				</attachment>
			</content>
			<content>
				<attachment>
					<contentType value="application/atom+xml"/>
					<language value="es-us"/>
					<url value="https://wandering-field.herokuapp.com/Content/es-us/hw161562"/>
				</attachment>
			</content>
			<content>
				<attachment>
					<contentType value="text/html"/>
					<language value="es-us"/>
					<url value="https://wandering-field.herokuapp.com/Content/es-us/hw161562?hw.format=rhtml"/>
				</attachment>
			</content>
			<content>
				<attachment>
					<contentType value="text/xml"/>
					<language value="es-us"/>
					<url value="https://wandering-field.herokuapp.com/Content/es-us/hw161562.xml"/>
				</attachment>
			</content>
			<content>
				<attachment>
					<contentType value="application/pdf"/>
					<language value="es-us"/>
					<url value="https://wandering-field.herokuapp.com/Content/es-us/hw161562.pdf"/>
				</attachment>
			</content>
		</DocumentReference>
	</contained>
	<contained >
		<DocumentReference>
			<id value="InfoButtonResponse44"/>
			<type>
				<coding>
					<system value="http://loinc.org"/>
					<code value="34895-3"/>
					<display value="Education note"/>
				</coding>
			</type>
			<class>
				<coding>
					<system value="http://healthwise.org/doctype"/>
					<code value="special"/>
				</coding>
			</class>
			<author>
				<reference value="Organization/healthwise"/>
			</author>
			<custodian>
				<reference value="Organization/healthwise"/>
			</custodian>
			<created value="2016-08-30T22:03:41Z"/>
			<indexed value="2016-08-30T22:03:41Z"/>
			<status value="current"/>
			<docStatus>
				<coding>
					<system value="http://hl7.org/fhir/composition-status"/>
					<code value="final"/>
					<display value="final"/>
				</coding>
			</docStatus>
			<description value="Asthma Attack"/>
			<content>
				<attachment>
					<contentType value="application/atom+xml"/>
					<language value="en-us"/>
					<url value="https://wandering-field.herokuapp.com/Content/en-us/hw161630"/>
				</attachment>
			</content>
			<content>
				<attachment>
					<contentType value="text/html"/>
					<language value="en-us"/>
					<url value="https://wandering-field.herokuapp.com/Content/en-us/hw161630?hw.format=rhtml"/>
				</attachment>
			</content>
			<content>
				<attachment>
					<contentType value="text/xml"/>
					<language value="en-us"/>
					<url value="https://wandering-field.herokuapp.com/Content/en-us/hw161630.xml"/>
				</attachment>
			</content>
			<content>
				<attachment>
					<contentType value="application/pdf"/>
					<language value="en-us"/>
					<url value="https://wandering-field.herokuapp.com/Content/en-us/hw161630.pdf"/>
				</attachment>
			</content>
			<content>
				<attachment>
					<contentType value="application/atom+xml"/>
					<language value="es-us"/>
					<url value="https://wandering-field.herokuapp.com/Content/es-us/hw161630"/>
				</attachment>
			</content>
			<content>
				<attachment>
					<contentType value="text/html"/>
					<language value="es-us"/>
					<url value="https://wandering-field.herokuapp.com/Content/es-us/hw161630?hw.format=rhtml"/>
				</attachment>
			</content>
			<content>
				<attachment>
					<contentType value="text/xml"/>
					<language value="es-us"/>
					<url value="https://wandering-field.herokuapp.com/Content/es-us/hw161630.xml"/>
				</attachment>
			</content>
			<content>
				<attachment>
					<contentType value="application/pdf"/>
					<language value="es-us"/>
					<url value="https://wandering-field.herokuapp.com/Content/es-us/hw161630.pdf"/>
				</attachment>
			</content>
		</DocumentReference>
	</contained>
	<contained >
		<DocumentReference>
			<id value="InfoButtonResponse45"/>
			<type>
				<coding>
					<system value="http://loinc.org"/>
					<code value="34895-3"/>
					<display value="Education note"/>
				</coding>
			</type>
			<class>
				<coding>
					<system value="http://healthwise.org/doctype"/>
					<code value="special"/>
				</coding>
			</class>
			<author>
				<reference value="Organization/healthwise"/>
			</author>
			<custodian>
				<reference value="Organization/healthwise"/>
			</custodian>
			<created value="2016-08-30T22:03:41Z"/>
			<indexed value="2016-08-30T22:03:41Z"/>
			<status value="current"/>
			<docStatus>
				<coding>
					<system value="http://hl7.org/fhir/composition-status"/>
					<code value="final"/>
					<display value="final"/>
				</coding>
			</docStatus>
			<description value="Asthma: Symptoms of Difficulty Breathing"/>
			<content>
				<attachment>
					<contentType value="application/atom+xml"/>
					<language value="en-us"/>
					<url value="https://wandering-field.herokuapp.com/Content/en-us/hw161689"/>
				</attachment>
			</content>
			<content>
				<attachment>
					<contentType value="text/html"/>
					<language value="en-us"/>
					<url value="https://wandering-field.herokuapp.com/Content/en-us/hw161689?hw.format=rhtml"/>
				</attachment>
			</content>
			<content>
				<attachment>
					<contentType value="text/xml"/>
					<language value="en-us"/>
					<url value="https://wandering-field.herokuapp.com/Content/en-us/hw161689.xml"/>
				</attachment>
			</content>
			<content>
				<attachment>
					<contentType value="application/pdf"/>
					<language value="en-us"/>
					<url value="https://wandering-field.herokuapp.com/Content/en-us/hw161689.pdf"/>
				</attachment>
			</content>
			<content>
				<attachment>
					<contentType value="application/atom+xml"/>
					<language value="es-us"/>
					<url value="https://wandering-field.herokuapp.com/Content/es-us/hw161689"/>
				</attachment>
			</content>
			<content>
				<attachment>
					<contentType value="text/html"/>
					<language value="es-us"/>
					<url value="https://wandering-field.herokuapp.com/Content/es-us/hw161689?hw.format=rhtml"/>
				</attachment>
			</content>
			<content>
				<attachment>
					<contentType value="text/xml"/>
					<language value="es-us"/>
					<url value="https://wandering-field.herokuapp.com/Content/es-us/hw161689.xml"/>
				</attachment>
			</content>
			<content>
				<attachment>
					<contentType value="application/pdf"/>
					<language value="es-us"/>
					<url value="https://wandering-field.herokuapp.com/Content/es-us/hw161689.pdf"/>
				</attachment>
			</content>
		</DocumentReference>
	</contained>
	<contained >
		<DocumentReference>
			<id value="InfoButtonResponse46"/>
			<type>
				<coding>
					<system value="http://loinc.org"/>
					<code value="34895-3"/>
					<display value="Education note"/>
				</coding>
			</type>
			<class>
				<coding>
					<system value="http://healthwise.org/doctype"/>
					<code value="special"/>
				</coding>
			</class>
			<author>
				<reference value="Organization/healthwise"/>
			</author>
			<custodian>
				<reference value="Organization/healthwise"/>
			</custodian>
			<created value="2016-08-30T22:03:41Z"/>
			<indexed value="2016-08-30T22:03:41Z"/>
			<status value="current"/>
			<docStatus>
				<coding>
					<system value="http://hl7.org/fhir/composition-status"/>
					<code value="final"/>
					<display value="final"/>
				</coding>
			</docStatus>
			<description value="Asthma Treatment Goals"/>
			<content>
				<attachment>
					<contentType value="application/atom+xml"/>
					<language value="en-us"/>
					<url value="https://wandering-field.herokuapp.com/Content/en-us/hw162062"/>
				</attachment>
			</content>
			<content>
				<attachment>
					<contentType value="text/html"/>
					<language value="en-us"/>
					<url value="https://wandering-field.herokuapp.com/Content/en-us/hw162062?hw.format=rhtml"/>
				</attachment>
			</content>
			<content>
				<attachment>
					<contentType value="text/xml"/>
					<language value="en-us"/>
					<url value="https://wandering-field.herokuapp.com/Content/en-us/hw162062.xml"/>
				</attachment>
			</content>
			<content>
				<attachment>
					<contentType value="application/pdf"/>
					<language value="en-us"/>
					<url value="https://wandering-field.herokuapp.com/Content/en-us/hw162062.pdf"/>
				</attachment>
			</content>
			<content>
				<attachment>
					<contentType value="application/atom+xml"/>
					<language value="es-us"/>
					<url value="https://wandering-field.herokuapp.com/Content/es-us/hw162062"/>
				</attachment>
			</content>
			<content>
				<attachment>
					<contentType value="text/html"/>
					<language value="es-us"/>
					<url value="https://wandering-field.herokuapp.com/Content/es-us/hw162062?hw.format=rhtml"/>
				</attachment>
			</content>
			<content>
				<attachment>
					<contentType value="text/xml"/>
					<language value="es-us"/>
					<url value="https://wandering-field.herokuapp.com/Content/es-us/hw162062.xml"/>
				</attachment>
			</content>
			<content>
				<attachment>
					<contentType value="application/pdf"/>
					<language value="es-us"/>
					<url value="https://wandering-field.herokuapp.com/Content/es-us/hw162062.pdf"/>
				</attachment>
			</content>
		</DocumentReference>
	</contained>
	<contained >
		<DocumentReference>
			<id value="InfoButtonResponse47"/>
			<type>
				<coding>
					<system value="http://loinc.org"/>
					<code value="34895-3"/>
					<display value="Education note"/>
				</coding>
			</type>
			<class>
				<coding>
					<system value="http://healthwise.org/doctype"/>
					<code value="special"/>
				</coding>
			</class>
			<author>
				<reference value="Organization/healthwise"/>
			</author>
			<custodian>
				<reference value="Organization/healthwise"/>
			</custodian>
			<created value="2016-08-30T22:03:41Z"/>
			<indexed value="2016-08-30T22:03:41Z"/>
			<status value="current"/>
			<docStatus>
				<coding>
					<system value="http://hl7.org/fhir/composition-status"/>
					<code value="final"/>
					<display value="final"/>
				</coding>
			</docStatus>
			<description value="Asthma: Overcoming Obstacles to Taking Medicines"/>
			<content>
				<attachment>
					<contentType value="application/atom+xml"/>
					<language value="en-us"/>
					<url value="https://wandering-field.herokuapp.com/Content/en-us/hw162177"/>
				</attachment>
			</content>
			<content>
				<attachment>
					<contentType value="text/html"/>
					<language value="en-us"/>
					<url value="https://wandering-field.herokuapp.com/Content/en-us/hw162177?hw.format=rhtml"/>
				</attachment>
			</content>
			<content>
				<attachment>
					<contentType value="text/xml"/>
					<language value="en-us"/>
					<url value="https://wandering-field.herokuapp.com/Content/en-us/hw162177.xml"/>
				</attachment>
			</content>
			<content>
				<attachment>
					<contentType value="application/pdf"/>
					<language value="en-us"/>
					<url value="https://wandering-field.herokuapp.com/Content/en-us/hw162177.pdf"/>
				</attachment>
			</content>
			<content>
				<attachment>
					<contentType value="application/atom+xml"/>
					<language value="es-us"/>
					<url value="https://wandering-field.herokuapp.com/Content/es-us/hw162177"/>
				</attachment>
			</content>
			<content>
				<attachment>
					<contentType value="text/html"/>
					<language value="es-us"/>
					<url value="https://wandering-field.herokuapp.com/Content/es-us/hw162177?hw.format=rhtml"/>
				</attachment>
			</content>
			<content>
				<attachment>
					<contentType value="text/xml"/>
					<language value="es-us"/>
					<url value="https://wandering-field.herokuapp.com/Content/es-us/hw162177.xml"/>
				</attachment>
			</content>
			<content>
				<attachment>
					<contentType value="application/pdf"/>
					<language value="es-us"/>
					<url value="https://wandering-field.herokuapp.com/Content/es-us/hw162177.pdf"/>
				</attachment>
			</content>
		</DocumentReference>
	</contained>
	<contained >
		<DocumentReference>
			<id value="InfoButtonResponse48"/>
			<type>
				<coding>
					<system value="http://loinc.org"/>
					<code value="34895-3"/>
					<display value="Education note"/>
				</coding>
			</type>
			<class>
				<coding>
					<system value="http://healthwise.org/doctype"/>
					<code value="special"/>
				</coding>
			</class>
			<author>
				<reference value="Organization/healthwise"/>
			</author>
			<custodian>
				<reference value="Organization/healthwise"/>
			</custodian>
			<created value="2016-08-30T22:03:41Z"/>
			<indexed value="2016-08-30T22:03:41Z"/>
			<status value="current"/>
			<docStatus>
				<coding>
					<system value="http://hl7.org/fhir/composition-status"/>
					<code value="final"/>
					<display value="final"/>
				</coding>
			</docStatus>
			<description value="Asthma: Controlling Cockroaches"/>
			<content>
				<attachment>
					<contentType value="application/atom+xml"/>
					<language value="en-us"/>
					<url value="https://wandering-field.herokuapp.com/Content/en-us/hw162386"/>
				</attachment>
			</content>
			<content>
				<attachment>
					<contentType value="text/html"/>
					<language value="en-us"/>
					<url value="https://wandering-field.herokuapp.com/Content/en-us/hw162386?hw.format=rhtml"/>
				</attachment>
			</content>
			<content>
				<attachment>
					<contentType value="text/xml"/>
					<language value="en-us"/>
					<url value="https://wandering-field.herokuapp.com/Content/en-us/hw162386.xml"/>
				</attachment>
			</content>
			<content>
				<attachment>
					<contentType value="application/pdf"/>
					<language value="en-us"/>
					<url value="https://wandering-field.herokuapp.com/Content/en-us/hw162386.pdf"/>
				</attachment>
			</content>
			<content>
				<attachment>
					<contentType value="application/atom+xml"/>
					<language value="es-us"/>
					<url value="https://wandering-field.herokuapp.com/Content/es-us/hw162386"/>
				</attachment>
			</content>
			<content>
				<attachment>
					<contentType value="text/html"/>
					<language value="es-us"/>
					<url value="https://wandering-field.herokuapp.com/Content/es-us/hw162386?hw.format=rhtml"/>
				</attachment>
			</content>
			<content>
				<attachment>
					<contentType value="text/xml"/>
					<language value="es-us"/>
					<url value="https://wandering-field.herokuapp.com/Content/es-us/hw162386.xml"/>
				</attachment>
			</content>
			<content>
				<attachment>
					<contentType value="application/pdf"/>
					<language value="es-us"/>
					<url value="https://wandering-field.herokuapp.com/Content/es-us/hw162386.pdf"/>
				</attachment>
			</content>
		</DocumentReference>
	</contained>
	<contained >
		<DocumentReference>
			<id value="InfoButtonResponse49"/>
			<type>
				<coding>
					<system value="http://loinc.org"/>
					<code value="34895-3"/>
					<display value="Education note"/>
				</coding>
			</type>
			<class>
				<coding>
					<system value="http://healthwise.org/doctype"/>
					<code value="special"/>
				</coding>
			</class>
			<author>
				<reference value="Organization/healthwise"/>
			</author>
			<custodian>
				<reference value="Organization/healthwise"/>
			</custodian>
			<created value="2016-08-30T22:03:41Z"/>
			<indexed value="2016-08-30T22:03:41Z"/>
			<status value="current"/>
			<docStatus>
				<coding>
					<system value="http://hl7.org/fhir/composition-status"/>
					<code value="final"/>
					<display value="final"/>
				</coding>
			</docStatus>
			<description value="Asthma: Educating Yourself and Your Child"/>
			<content>
				<attachment>
					<contentType value="application/atom+xml"/>
					<language value="en-us"/>
					<url value="https://wandering-field.herokuapp.com/Content/en-us/hw162416"/>
				</attachment>
			</content>
			<content>
				<attachment>
					<contentType value="text/html"/>
					<language value="en-us"/>
					<url value="https://wandering-field.herokuapp.com/Content/en-us/hw162416?hw.format=rhtml"/>
				</attachment>
			</content>
			<content>
				<attachment>
					<contentType value="text/xml"/>
					<language value="en-us"/>
					<url value="https://wandering-field.herokuapp.com/Content/en-us/hw162416.xml"/>
				</attachment>
			</content>
			<content>
				<attachment>
					<contentType value="application/pdf"/>
					<language value="en-us"/>
					<url value="https://wandering-field.herokuapp.com/Content/en-us/hw162416.pdf"/>
				</attachment>
			</content>
			<content>
				<attachment>
					<contentType value="application/atom+xml"/>
					<language value="es-us"/>
					<url value="https://wandering-field.herokuapp.com/Content/es-us/hw162416"/>
				</attachment>
			</content>
			<content>
				<attachment>
					<contentType value="text/html"/>
					<language value="es-us"/>
					<url value="https://wandering-field.herokuapp.com/Content/es-us/hw162416?hw.format=rhtml"/>
				</attachment>
			</content>
			<content>
				<attachment>
					<contentType value="text/xml"/>
					<language value="es-us"/>
					<url value="https://wandering-field.herokuapp.com/Content/es-us/hw162416.xml"/>
				</attachment>
			</content>
			<content>
				<attachment>
					<contentType value="application/pdf"/>
					<language value="es-us"/>
					<url value="https://wandering-field.herokuapp.com/Content/es-us/hw162416.pdf"/>
				</attachment>
			</content>
		</DocumentReference>
	</contained>
	<contained >
		<DocumentReference>
			<id value="InfoButtonResponse50"/>
			<type>
				<coding>
					<system value="http://loinc.org"/>
					<code value="34895-3"/>
					<display value="Education note"/>
				</coding>
			</type>
			<class>
				<coding>
					<system value="http://healthwise.org/doctype"/>
					<code value="otherdetail"/>
				</coding>
			</class>
			<author>
				<reference value="Organization/healthwise"/>
			</author>
			<custodian>
				<reference value="Organization/healthwise"/>
			</custodian>
			<created value="2016-08-30T22:03:41Z"/>
			<indexed value="2016-08-30T22:03:41Z"/>
			<status value="current"/>
			<docStatus>
				<coding>
					<system value="http://hl7.org/fhir/composition-status"/>
					<code value="final"/>
					<display value="final"/>
				</coding>
			</docStatus>
			<description value="Allergy Shots for Asthma"/>
			<content>
				<attachment>
					<contentType value="application/atom+xml"/>
					<language value="en-us"/>
					<url value="https://wandering-field.herokuapp.com/Content/en-us/hw163092"/>
				</attachment>
			</content>
			<content>
				<attachment>
					<contentType value="text/html"/>
					<language value="en-us"/>
					<url value="https://wandering-field.herokuapp.com/Content/en-us/hw163092?hw.format=rhtml"/>
				</attachment>
			</content>
			<content>
				<attachment>
					<contentType value="text/xml"/>
					<language value="en-us"/>
					<url value="https://wandering-field.herokuapp.com/Content/en-us/hw163092.xml"/>
				</attachment>
			</content>
			<content>
				<attachment>
					<contentType value="application/pdf"/>
					<language value="en-us"/>
					<url value="https://wandering-field.herokuapp.com/Content/en-us/hw163092.pdf"/>
				</attachment>
			</content>
			<content>
				<attachment>
					<contentType value="application/atom+xml"/>
					<language value="es-us"/>
					<url value="https://wandering-field.herokuapp.com/Content/es-us/hw163092"/>
				</attachment>
			</content>
			<content>
				<attachment>
					<contentType value="text/html"/>
					<language value="es-us"/>
					<url value="https://wandering-field.herokuapp.com/Content/es-us/hw163092?hw.format=rhtml"/>
				</attachment>
			</content>
			<content>
				<attachment>
					<contentType value="text/xml"/>
					<language value="es-us"/>
					<url value="https://wandering-field.herokuapp.com/Content/es-us/hw163092.xml"/>
				</attachment>
			</content>
			<content>
				<attachment>
					<contentType value="application/pdf"/>
					<language value="es-us"/>
					<url value="https://wandering-field.herokuapp.com/Content/es-us/hw163092.pdf"/>
				</attachment>
			</content>
		</DocumentReference>
	</contained>
	<contained >
		<DocumentReference>
			<id value="InfoButtonResponse51"/>
			<type>
				<coding>
					<system value="http://loinc.org"/>
					<code value="34895-3"/>
					<display value="Education note"/>
				</coding>
			</type>
			<class>
				<coding>
					<system value="http://healthwise.org/doctype"/>
					<code value="drugdetail"/>
				</coding>
			</class>
			<author>
				<reference value="Organization/healthwise"/>
			</author>
			<custodian>
				<reference value="Organization/healthwise"/>
			</custodian>
			<created value="2016-08-30T22:03:41Z"/>
			<indexed value="2016-08-30T22:03:41Z"/>
			<status value="current"/>
			<docStatus>
				<coding>
					<system value="http://hl7.org/fhir/composition-status"/>
					<code value="final"/>
					<display value="final"/>
				</coding>
			</docStatus>
			<description value="Short-Acting Beta2-Agonists for Quick Relief of Asthma Symptoms"/>
			<content>
				<attachment>
					<contentType value="application/atom+xml"/>
					<language value="en-us"/>
					<url value="https://wandering-field.herokuapp.com/Content/en-us/hw163294"/>
				</attachment>
			</content>
			<content>
				<attachment>
					<contentType value="text/html"/>
					<language value="en-us"/>
					<url value="https://wandering-field.herokuapp.com/Content/en-us/hw163294?hw.format=rhtml"/>
				</attachment>
			</content>
			<content>
				<attachment>
					<contentType value="text/xml"/>
					<language value="en-us"/>
					<url value="https://wandering-field.herokuapp.com/Content/en-us/hw163294.xml"/>
				</attachment>
			</content>
			<content>
				<attachment>
					<contentType value="application/pdf"/>
					<language value="en-us"/>
					<url value="https://wandering-field.herokuapp.com/Content/en-us/hw163294.pdf"/>
				</attachment>
			</content>
			<content>
				<attachment>
					<contentType value="application/atom+xml"/>
					<language value="es-us"/>
					<url value="https://wandering-field.herokuapp.com/Content/es-us/hw163294"/>
				</attachment>
			</content>
			<content>
				<attachment>
					<contentType value="text/html"/>
					<language value="es-us"/>
					<url value="https://wandering-field.herokuapp.com/Content/es-us/hw163294?hw.format=rhtml"/>
				</attachment>
			</content>
			<content>
				<attachment>
					<contentType value="text/xml"/>
					<language value="es-us"/>
					<url value="https://wandering-field.herokuapp.com/Content/es-us/hw163294.xml"/>
				</attachment>
			</content>
			<content>
				<attachment>
					<contentType value="application/pdf"/>
					<language value="es-us"/>
					<url value="https://wandering-field.herokuapp.com/Content/es-us/hw163294.pdf"/>
				</attachment>
			</content>
		</DocumentReference>
	</contained>
	<contained >
		<DocumentReference>
			<id value="InfoButtonResponse52"/>
			<type>
				<coding>
					<system value="http://loinc.org"/>
					<code value="34895-3"/>
					<display value="Education note"/>
				</coding>
			</type>
			<class>
				<coding>
					<system value="http://healthwise.org/doctype"/>
					<code value="drugdetail"/>
				</coding>
			</class>
			<author>
				<reference value="Organization/healthwise"/>
			</author>
			<custodian>
				<reference value="Organization/healthwise"/>
			</custodian>
			<created value="2016-08-30T22:03:41Z"/>
			<indexed value="2016-08-30T22:03:41Z"/>
			<status value="current"/>
			<docStatus>
				<coding>
					<system value="http://hl7.org/fhir/composition-status"/>
					<code value="final"/>
					<display value="final"/>
				</coding>
			</docStatus>
			<description value="Theophylline for Long-Term Control of Asthma"/>
			<content>
				<attachment>
					<contentType value="application/atom+xml"/>
					<language value="en-us"/>
					<url value="https://wandering-field.herokuapp.com/Content/en-us/hw163398"/>
				</attachment>
			</content>
			<content>
				<attachment>
					<contentType value="text/html"/>
					<language value="en-us"/>
					<url value="https://wandering-field.herokuapp.com/Content/en-us/hw163398?hw.format=rhtml"/>
				</attachment>
			</content>
			<content>
				<attachment>
					<contentType value="text/xml"/>
					<language value="en-us"/>
					<url value="https://wandering-field.herokuapp.com/Content/en-us/hw163398.xml"/>
				</attachment>
			</content>
			<content>
				<attachment>
					<contentType value="application/pdf"/>
					<language value="en-us"/>
					<url value="https://wandering-field.herokuapp.com/Content/en-us/hw163398.pdf"/>
				</attachment>
			</content>
			<content>
				<attachment>
					<contentType value="application/atom+xml"/>
					<language value="es-us"/>
					<url value="https://wandering-field.herokuapp.com/Content/es-us/hw163398"/>
				</attachment>
			</content>
			<content>
				<attachment>
					<contentType value="text/html"/>
					<language value="es-us"/>
					<url value="https://wandering-field.herokuapp.com/Content/es-us/hw163398?hw.format=rhtml"/>
				</attachment>
			</content>
			<content>
				<attachment>
					<contentType value="text/xml"/>
					<language value="es-us"/>
					<url value="https://wandering-field.herokuapp.com/Content/es-us/hw163398.xml"/>
				</attachment>
			</content>
			<content>
				<attachment>
					<contentType value="application/pdf"/>
					<language value="es-us"/>
					<url value="https://wandering-field.herokuapp.com/Content/es-us/hw163398.pdf"/>
				</attachment>
			</content>
		</DocumentReference>
	</contained>
	<contained >
		<DocumentReference>
			<id value="InfoButtonResponse53"/>
			<type>
				<coding>
					<system value="http://loinc.org"/>
					<code value="34895-3"/>
					<display value="Education note"/>
				</coding>
			</type>
			<class>
				<coding>
					<system value="http://healthwise.org/doctype"/>
					<code value="drugdetail"/>
				</coding>
			</class>
			<author>
				<reference value="Organization/healthwise"/>
			</author>
			<custodian>
				<reference value="Organization/healthwise"/>
			</custodian>
			<created value="2016-08-30T22:03:41Z"/>
			<indexed value="2016-08-30T22:03:41Z"/>
			<status value="current"/>
			<docStatus>
				<coding>
					<system value="http://hl7.org/fhir/composition-status"/>
					<code value="final"/>
					<display value="final"/>
				</coding>
			</docStatus>
			<description value="Anticholinergics for Asthma"/>
			<content>
				<attachment>
					<contentType value="application/atom+xml"/>
					<language value="en-us"/>
					<url value="https://wandering-field.herokuapp.com/Content/en-us/hw163454"/>
				</attachment>
			</content>
			<content>
				<attachment>
					<contentType value="text/html"/>
					<language value="en-us"/>
					<url value="https://wandering-field.herokuapp.com/Content/en-us/hw163454?hw.format=rhtml"/>
				</attachment>
			</content>
			<content>
				<attachment>
					<contentType value="text/xml"/>
					<language value="en-us"/>
					<url value="https://wandering-field.herokuapp.com/Content/en-us/hw163454.xml"/>
				</attachment>
			</content>
			<content>
				<attachment>
					<contentType value="application/pdf"/>
					<language value="en-us"/>
					<url value="https://wandering-field.herokuapp.com/Content/en-us/hw163454.pdf"/>
				</attachment>
			</content>
			<content>
				<attachment>
					<contentType value="application/atom+xml"/>
					<language value="es-us"/>
					<url value="https://wandering-field.herokuapp.com/Content/es-us/hw163454"/>
				</attachment>
			</content>
			<content>
				<attachment>
					<contentType value="text/html"/>
					<language value="es-us"/>
					<url value="https://wandering-field.herokuapp.com/Content/es-us/hw163454?hw.format=rhtml"/>
				</attachment>
			</content>
			<content>
				<attachment>
					<contentType value="text/xml"/>
					<language value="es-us"/>
					<url value="https://wandering-field.herokuapp.com/Content/es-us/hw163454.xml"/>
				</attachment>
			</content>
			<content>
				<attachment>
					<contentType value="application/pdf"/>
					<language value="es-us"/>
					<url value="https://wandering-field.herokuapp.com/Content/es-us/hw163454.pdf"/>
				</attachment>
			</content>
		</DocumentReference>
	</contained>
	<contained >
		<DocumentReference>
			<id value="InfoButtonResponse54"/>
			<type>
				<coding>
					<system value="http://loinc.org"/>
					<code value="34895-3"/>
					<display value="Education note"/>
				</coding>
			</type>
			<class>
				<coding>
					<system value="http://healthwise.org/doctype"/>
					<code value="drugdetail"/>
				</coding>
			</class>
			<author>
				<reference value="Organization/healthwise"/>
			</author>
			<custodian>
				<reference value="Organization/healthwise"/>
			</custodian>
			<created value="2016-08-30T22:03:41Z"/>
			<indexed value="2016-08-30T22:03:41Z"/>
			<status value="current"/>
			<docStatus>
				<coding>
					<system value="http://hl7.org/fhir/composition-status"/>
					<code value="final"/>
					<display value="final"/>
				</coding>
			</docStatus>
			<description value="Long-Acting Beta2-Agonists for Long-Term Control of Asthma"/>
			<content>
				<attachment>
					<contentType value="application/atom+xml"/>
					<language value="en-us"/>
					<url value="https://wandering-field.herokuapp.com/Content/en-us/hw163497"/>
				</attachment>
			</content>
			<content>
				<attachment>
					<contentType value="text/html"/>
					<language value="en-us"/>
					<url value="https://wandering-field.herokuapp.com/Content/en-us/hw163497?hw.format=rhtml"/>
				</attachment>
			</content>
			<content>
				<attachment>
					<contentType value="text/xml"/>
					<language value="en-us"/>
					<url value="https://wandering-field.herokuapp.com/Content/en-us/hw163497.xml"/>
				</attachment>
			</content>
			<content>
				<attachment>
					<contentType value="application/pdf"/>
					<language value="en-us"/>
					<url value="https://wandering-field.herokuapp.com/Content/en-us/hw163497.pdf"/>
				</attachment>
			</content>
			<content>
				<attachment>
					<contentType value="application/atom+xml"/>
					<language value="es-us"/>
					<url value="https://wandering-field.herokuapp.com/Content/es-us/hw163497"/>
				</attachment>
			</content>
			<content>
				<attachment>
					<contentType value="text/html"/>
					<language value="es-us"/>
					<url value="https://wandering-field.herokuapp.com/Content/es-us/hw163497?hw.format=rhtml"/>
				</attachment>
			</content>
			<content>
				<attachment>
					<contentType value="text/xml"/>
					<language value="es-us"/>
					<url value="https://wandering-field.herokuapp.com/Content/es-us/hw163497.xml"/>
				</attachment>
			</content>
			<content>
				<attachment>
					<contentType value="application/pdf"/>
					<language value="es-us"/>
					<url value="https://wandering-field.herokuapp.com/Content/es-us/hw163497.pdf"/>
				</attachment>
			</content>
		</DocumentReference>
	</contained>
	<contained >
		<DocumentReference>
			<id value="InfoButtonResponse55"/>
			<type>
				<coding>
					<system value="http://loinc.org"/>
					<code value="34895-3"/>
					<display value="Education note"/>
				</coding>
			</type>
			<class>
				<coding>
					<system value="http://healthwise.org/doctype"/>
					<code value="drugdetail"/>
				</coding>
			</class>
			<author>
				<reference value="Organization/healthwise"/>
			</author>
			<custodian>
				<reference value="Organization/healthwise"/>
			</custodian>
			<created value="2016-08-30T22:03:41Z"/>
			<indexed value="2016-08-30T22:03:41Z"/>
			<status value="current"/>
			<docStatus>
				<coding>
					<system value="http://hl7.org/fhir/composition-status"/>
					<code value="final"/>
					<display value="final"/>
				</coding>
			</docStatus>
			<description value="Leukotriene Pathway Modifiers for Long-Term Control of Asthma"/>
			<content>
				<attachment>
					<contentType value="application/atom+xml"/>
					<language value="en-us"/>
					<url value="https://wandering-field.herokuapp.com/Content/en-us/hw163553"/>
				</attachment>
			</content>
			<content>
				<attachment>
					<contentType value="text/html"/>
					<language value="en-us"/>
					<url value="https://wandering-field.herokuapp.com/Content/en-us/hw163553?hw.format=rhtml"/>
				</attachment>
			</content>
			<content>
				<attachment>
					<contentType value="text/xml"/>
					<language value="en-us"/>
					<url value="https://wandering-field.herokuapp.com/Content/en-us/hw163553.xml"/>
				</attachment>
			</content>
			<content>
				<attachment>
					<contentType value="application/pdf"/>
					<language value="en-us"/>
					<url value="https://wandering-field.herokuapp.com/Content/en-us/hw163553.pdf"/>
				</attachment>
			</content>
			<content>
				<attachment>
					<contentType value="application/atom+xml"/>
					<language value="es-us"/>
					<url value="https://wandering-field.herokuapp.com/Content/es-us/hw163553"/>
				</attachment>
			</content>
			<content>
				<attachment>
					<contentType value="text/html"/>
					<language value="es-us"/>
					<url value="https://wandering-field.herokuapp.com/Content/es-us/hw163553?hw.format=rhtml"/>
				</attachment>
			</content>
			<content>
				<attachment>
					<contentType value="text/xml"/>
					<language value="es-us"/>
					<url value="https://wandering-field.herokuapp.com/Content/es-us/hw163553.xml"/>
				</attachment>
			</content>
			<content>
				<attachment>
					<contentType value="application/pdf"/>
					<language value="es-us"/>
					<url value="https://wandering-field.herokuapp.com/Content/es-us/hw163553.pdf"/>
				</attachment>
			</content>
		</DocumentReference>
	</contained>
	<contained >
		<DocumentReference>
			<id value="InfoButtonResponse56"/>
			<type>
				<coding>
					<system value="http://loinc.org"/>
					<code value="34895-3"/>
					<display value="Education note"/>
				</coding>
			</type>
			<class>
				<coding>
					<system value="http://healthwise.org/doctype"/>
					<code value="special"/>
				</coding>
			</class>
			<author>
				<reference value="Organization/healthwise"/>
			</author>
			<custodian>
				<reference value="Organization/healthwise"/>
			</custodian>
			<created value="2016-08-30T22:03:41Z"/>
			<indexed value="2016-08-30T22:03:41Z"/>
			<status value="current"/>
			<docStatus>
				<coding>
					<system value="http://hl7.org/fhir/composition-status"/>
					<code value="final"/>
					<display value="final"/>
				</coding>
			</docStatus>
			<description value="Controlling Dust, Dust Mites, and Other Allergens in Your Home"/>
			<content>
				<attachment>
					<contentType value="application/atom+xml"/>
					<language value="en-us"/>
					<url value="https://wandering-field.herokuapp.com/Content/en-us/rt1233"/>
				</attachment>
			</content>
			<content>
				<attachment>
					<contentType value="text/html"/>
					<language value="en-us"/>
					<url value="https://wandering-field.herokuapp.com/Content/en-us/rt1233?hw.format=rhtml"/>
				</attachment>
			</content>
			<content>
				<attachment>
					<contentType value="text/xml"/>
					<language value="en-us"/>
					<url value="https://wandering-field.herokuapp.com/Content/en-us/rt1233.xml"/>
				</attachment>
			</content>
			<content>
				<attachment>
					<contentType value="application/pdf"/>
					<language value="en-us"/>
					<url value="https://wandering-field.herokuapp.com/Content/en-us/rt1233.pdf"/>
				</attachment>
			</content>
			<content>
				<attachment>
					<contentType value="application/atom+xml"/>
					<language value="es-us"/>
					<url value="https://wandering-field.herokuapp.com/Content/es-us/rt1233"/>
				</attachment>
			</content>
			<content>
				<attachment>
					<contentType value="text/html"/>
					<language value="es-us"/>
					<url value="https://wandering-field.herokuapp.com/Content/es-us/rt1233?hw.format=rhtml"/>
				</attachment>
			</content>
			<content>
				<attachment>
					<contentType value="text/xml"/>
					<language value="es-us"/>
					<url value="https://wandering-field.herokuapp.com/Content/es-us/rt1233.xml"/>
				</attachment>
			</content>
			<content>
				<attachment>
					<contentType value="application/pdf"/>
					<language value="es-us"/>
					<url value="https://wandering-field.herokuapp.com/Content/es-us/rt1233.pdf"/>
				</attachment>
			</content>
		</DocumentReference>
	</contained>
	<contained >
		<DocumentReference>
			<id value="InfoButtonResponse57"/>
			<type>
				<coding>
					<system value="http://loinc.org"/>
					<code value="34895-3"/>
					<display value="Education note"/>
				</coding>
			</type>
			<class>
				<coding>
					<system value="http://healthwise.org/doctype"/>
					<code value="actionset"/>
				</coding>
			</class>
			<author>
				<reference value="Organization/healthwise"/>
			</author>
			<custodian>
				<reference value="Organization/healthwise"/>
			</custodian>
			<created value="2016-08-30T22:03:41Z"/>
			<indexed value="2016-08-30T22:03:41Z"/>
			<status value="current"/>
			<docStatus>
				<coding>
					<system value="http://hl7.org/fhir/composition-status"/>
					<code value="final"/>
					<display value="final"/>
				</coding>
			</docStatus>
			<description value="Breathing Problems: Using a Dry Powder Inhaler"/>
			<content>
				<attachment>
					<contentType value="application/atom+xml"/>
					<language value="en-us"/>
					<url value="https://wandering-field.herokuapp.com/Content/en-us/uz2083"/>
				</attachment>
			</content>
			<content>
				<attachment>
					<contentType value="text/html"/>
					<language value="en-us"/>
					<url value="https://wandering-field.herokuapp.com/Content/en-us/uz2083?hw.format=rhtml"/>
				</attachment>
			</content>
			<content>
				<attachment>
					<contentType value="text/xml"/>
					<language value="en-us"/>
					<url value="https://wandering-field.herokuapp.com/Content/en-us/uz2083.xml"/>
				</attachment>
			</content>
			<content>
				<attachment>
					<contentType value="application/pdf"/>
					<language value="en-us"/>
					<url value="https://wandering-field.herokuapp.com/Content/en-us/uz2083.pdf"/>
				</attachment>
			</content>
			<content>
				<attachment>
					<contentType value="application/atom+xml"/>
					<language value="es-us"/>
					<url value="https://wandering-field.herokuapp.com/Content/es-us/uz2083"/>
				</attachment>
			</content>
			<content>
				<attachment>
					<contentType value="text/html"/>
					<language value="es-us"/>
					<url value="https://wandering-field.herokuapp.com/Content/es-us/uz2083?hw.format=rhtml"/>
				</attachment>
			</content>
			<content>
				<attachment>
					<contentType value="text/xml"/>
					<language value="es-us"/>
					<url value="https://wandering-field.herokuapp.com/Content/es-us/uz2083.xml"/>
				</attachment>
			</content>
			<content>
				<attachment>
					<contentType value="application/pdf"/>
					<language value="es-us"/>
					<url value="https://wandering-field.herokuapp.com/Content/es-us/uz2083.pdf"/>
				</attachment>
			</content>
		</DocumentReference>
	</contained>
	<contained >
		<DocumentReference>
			<id value="InfoButtonResponse58"/>
			<type>
				<coding>
					<system value="http://loinc.org"/>
					<code value="34895-3"/>
					<display value="Education note"/>
				</coding>
			</type>
			<class>
				<coding>
					<system value="http://healthwise.org/doctype"/>
					<code value="special"/>
				</coding>
			</class>
			<author>
				<reference value="Organization/healthwise"/>
			</author>
			<custodian>
				<reference value="Organization/healthwise"/>
			</custodian>
			<created value="2016-08-30T22:03:41Z"/>
			<indexed value="2016-08-30T22:03:41Z"/>
			<status value="current"/>
			<docStatus>
				<coding>
					<system value="http://hl7.org/fhir/composition-status"/>
					<code value="final"/>
					<display value="final"/>
				</coding>
			</docStatus>
			<description value="Monitoring Asthma Treatment"/>
			<content>
				<attachment>
					<contentType value="application/atom+xml"/>
					<language value="en-us"/>
					<url value="https://wandering-field.herokuapp.com/Content/en-us/uf4624abc"/>
				</attachment>
			</content>
			<content>
				<attachment>
					<contentType value="text/html"/>
					<language value="en-us"/>
					<url value="https://wandering-field.herokuapp.com/Content/en-us/uf4624abc?hw.format=rhtml"/>
				</attachment>
			</content>
			<content>
				<attachment>
					<contentType value="text/xml"/>
					<language value="en-us"/>
					<url value="https://wandering-field.herokuapp.com/Content/en-us/uf4624abc.xml"/>
				</attachment>
			</content>
			<content>
				<attachment>
					<contentType value="application/pdf"/>
					<language value="en-us"/>
					<url value="https://wandering-field.herokuapp.com/Content/en-us/uf4624abc.pdf"/>
				</attachment>
			</content>
			<content>
				<attachment>
					<contentType value="application/atom+xml"/>
					<language value="es-us"/>
					<url value="https://wandering-field.herokuapp.com/Content/es-us/uf4624abc"/>
				</attachment>
			</content>
			<content>
				<attachment>
					<contentType value="text/html"/>
					<language value="es-us"/>
					<url value="https://wandering-field.herokuapp.com/Content/es-us/uf4624abc?hw.format=rhtml"/>
				</attachment>
			</content>
			<content>
				<attachment>
					<contentType value="text/xml"/>
					<language value="es-us"/>
					<url value="https://wandering-field.herokuapp.com/Content/es-us/uf4624abc.xml"/>
				</attachment>
			</content>
			<content>
				<attachment>
					<contentType value="application/pdf"/>
					<language value="es-us"/>
					<url value="https://wandering-field.herokuapp.com/Content/es-us/uf4624abc.pdf"/>
				</attachment>
			</content>
		</DocumentReference>
	</contained>
	<contained >
		<DocumentReference>
			<id value="InfoButtonResponse59"/>
			<type>
				<coding>
					<system value="http://loinc.org"/>
					<code value="34895-3"/>
					<display value="Education note"/>
				</coding>
			</type>
			<class>
				<coding>
					<system value="http://healthwise.org/doctype"/>
					<code value="special"/>
				</coding>
			</class>
			<author>
				<reference value="Organization/healthwise"/>
			</author>
			<custodian>
				<reference value="Organization/healthwise"/>
			</custodian>
			<created value="2016-08-30T22:03:41Z"/>
			<indexed value="2016-08-30T22:03:41Z"/>
			<status value="current"/>
			<docStatus>
				<coding>
					<system value="http://hl7.org/fhir/composition-status"/>
					<code value="final"/>
					<display value="final"/>
				</coding>
			</docStatus>
			<description value="Omalizumab for Asthma"/>
			<content>
				<attachment>
					<contentType value="application/atom+xml"/>
					<language value="en-us"/>
					<url value="https://wandering-field.herokuapp.com/Content/en-us/ug2473"/>
				</attachment>
			</content>
			<content>
				<attachment>
					<contentType value="text/html"/>
					<language value="en-us"/>
					<url value="https://wandering-field.herokuapp.com/Content/en-us/ug2473?hw.format=rhtml"/>
				</attachment>
			</content>
			<content>
				<attachment>
					<contentType value="text/xml"/>
					<language value="en-us"/>
					<url value="https://wandering-field.herokuapp.com/Content/en-us/ug2473.xml"/>
				</attachment>
			</content>
			<content>
				<attachment>
					<contentType value="application/pdf"/>
					<language value="en-us"/>
					<url value="https://wandering-field.herokuapp.com/Content/en-us/ug2473.pdf"/>
				</attachment>
			</content>
			<content>
				<attachment>
					<contentType value="application/atom+xml"/>
					<language value="es-us"/>
					<url value="https://wandering-field.herokuapp.com/Content/es-us/ug2473"/>
				</attachment>
			</content>
			<content>
				<attachment>
					<contentType value="text/html"/>
					<language value="es-us"/>
					<url value="https://wandering-field.herokuapp.com/Content/es-us/ug2473?hw.format=rhtml"/>
				</attachment>
			</content>
			<content>
				<attachment>
					<contentType value="text/xml"/>
					<language value="es-us"/>
					<url value="https://wandering-field.herokuapp.com/Content/es-us/ug2473.xml"/>
				</attachment>
			</content>
			<content>
				<attachment>
					<contentType value="application/pdf"/>
					<language value="es-us"/>
					<url value="https://wandering-field.herokuapp.com/Content/es-us/ug2473.pdf"/>
				</attachment>
			</content>
		</DocumentReference>
	</contained>
	<contained >
		<DocumentReference>
			<id value="InfoButtonResponse60"/>
			<type>
				<coding>
					<system value="http://loinc.org"/>
					<code value="34895-3"/>
					<display value="Education note"/>
				</coding>
			</type>
			<class>
				<coding>
					<system value="http://healthwise.org/doctype"/>
					<code value="special"/>
				</coding>
			</class>
			<author>
				<reference value="Organization/healthwise"/>
			</author>
			<custodian>
				<reference value="Organization/healthwise"/>
			</custodian>
			<created value="2016-08-30T22:03:41Z"/>
			<indexed value="2016-08-30T22:03:41Z"/>
			<status value="current"/>
			<docStatus>
				<coding>
					<system value="http://hl7.org/fhir/composition-status"/>
					<code value="final"/>
					<display value="final"/>
				</coding>
			</docStatus>
			<description value="Asthma: Ways to Take Inhaled Medicines"/>
			<content>
				<attachment>
					<contentType value="application/atom+xml"/>
					<language value="en-us"/>
					<url value="https://wandering-field.herokuapp.com/Content/en-us/ug2490"/>
				</attachment>
			</content>
			<content>
				<attachment>
					<contentType value="text/html"/>
					<language value="en-us"/>
					<url value="https://wandering-field.herokuapp.com/Content/en-us/ug2490?hw.format=rhtml"/>
				</attachment>
			</content>
			<content>
				<attachment>
					<contentType value="text/xml"/>
					<language value="en-us"/>
					<url value="https://wandering-field.herokuapp.com/Content/en-us/ug2490.xml"/>
				</attachment>
			</content>
			<content>
				<attachment>
					<contentType value="application/pdf"/>
					<language value="en-us"/>
					<url value="https://wandering-field.herokuapp.com/Content/en-us/ug2490.pdf"/>
				</attachment>
			</content>
			<content>
				<attachment>
					<contentType value="application/atom+xml"/>
					<language value="es-us"/>
					<url value="https://wandering-field.herokuapp.com/Content/es-us/ug2490"/>
				</attachment>
			</content>
			<content>
				<attachment>
					<contentType value="text/html"/>
					<language value="es-us"/>
					<url value="https://wandering-field.herokuapp.com/Content/es-us/ug2490?hw.format=rhtml"/>
				</attachment>
			</content>
			<content>
				<attachment>
					<contentType value="text/xml"/>
					<language value="es-us"/>
					<url value="https://wandering-field.herokuapp.com/Content/es-us/ug2490.xml"/>
				</attachment>
			</content>
			<content>
				<attachment>
					<contentType value="application/pdf"/>
					<language value="es-us"/>
					<url value="https://wandering-field.herokuapp.com/Content/es-us/ug2490.pdf"/>
				</attachment>
			</content>
		</DocumentReference>
	</contained>
	<contained >
		<DocumentReference>
			<id value="InfoButtonResponse61"/>
			<type>
				<coding>
					<system value="http://loinc.org"/>
					<code value="34895-3"/>
					<display value="Education note"/>
				</coding>
			</type>
			<class>
				<coding>
					<system value="http://healthwise.org/doctype"/>
					<code value="special"/>
				</coding>
			</class>
			<author>
				<reference value="Organization/healthwise"/>
			</author>
			<custodian>
				<reference value="Organization/healthwise"/>
			</custodian>
			<created value="2016-08-30T22:03:41Z"/>
			<indexed value="2016-08-30T22:03:41Z"/>
			<status value="current"/>
			<docStatus>
				<coding>
					<system value="http://hl7.org/fhir/composition-status"/>
					<code value="final"/>
					<display value="final"/>
				</coding>
			</docStatus>
			<description value="Asthma: Overuse of Quick-Relief Medicines"/>
			<content>
				<attachment>
					<contentType value="application/atom+xml"/>
					<language value="en-us"/>
					<url value="https://wandering-field.herokuapp.com/Content/en-us/ug2494"/>
				</attachment>
			</content>
			<content>
				<attachment>
					<contentType value="text/html"/>
					<language value="en-us"/>
					<url value="https://wandering-field.herokuapp.com/Content/en-us/ug2494?hw.format=rhtml"/>
				</attachment>
			</content>
			<content>
				<attachment>
					<contentType value="text/xml"/>
					<language value="en-us"/>
					<url value="https://wandering-field.herokuapp.com/Content/en-us/ug2494.xml"/>
				</attachment>
			</content>
			<content>
				<attachment>
					<contentType value="application/pdf"/>
					<language value="en-us"/>
					<url value="https://wandering-field.herokuapp.com/Content/en-us/ug2494.pdf"/>
				</attachment>
			</content>
			<content>
				<attachment>
					<contentType value="application/atom+xml"/>
					<language value="es-us"/>
					<url value="https://wandering-field.herokuapp.com/Content/es-us/ug2494"/>
				</attachment>
			</content>
			<content>
				<attachment>
					<contentType value="text/html"/>
					<language value="es-us"/>
					<url value="https://wandering-field.herokuapp.com/Content/es-us/ug2494?hw.format=rhtml"/>
				</attachment>
			</content>
			<content>
				<attachment>
					<contentType value="text/xml"/>
					<language value="es-us"/>
					<url value="https://wandering-field.herokuapp.com/Content/es-us/ug2494.xml"/>
				</attachment>
			</content>
			<content>
				<attachment>
					<contentType value="application/pdf"/>
					<language value="es-us"/>
					<url value="https://wandering-field.herokuapp.com/Content/es-us/ug2494.pdf"/>
				</attachment>
			</content>
		</DocumentReference>
	</contained>
	<contained >
		<DocumentReference>
			<id value="InfoButtonResponse62"/>
			<type>
				<coding>
					<system value="http://loinc.org"/>
					<code value="34895-3"/>
					<display value="Education note"/>
				</coding>
			</type>
			<class>
				<coding>
					<system value="http://healthwise.org/doctype"/>
					<code value="special"/>
				</coding>
			</class>
			<author>
				<reference value="Organization/healthwise"/>
			</author>
			<custodian>
				<reference value="Organization/healthwise"/>
			</custodian>
			<created value="2016-08-30T22:03:41Z"/>
			<indexed value="2016-08-30T22:03:41Z"/>
			<status value="current"/>
			<docStatus>
				<coding>
					<system value="http://hl7.org/fhir/composition-status"/>
					<code value="final"/>
					<display value="final"/>
				</coding>
			</docStatus>
			<description value="Asthma Diary"/>
			<content>
				<attachment>
					<contentType value="application/atom+xml"/>
					<language value="en-us"/>
					<url value="https://wandering-field.herokuapp.com/Content/en-us/ug2519"/>
				</attachment>
			</content>
			<content>
				<attachment>
					<contentType value="text/html"/>
					<language value="en-us"/>
					<url value="https://wandering-field.herokuapp.com/Content/en-us/ug2519?hw.format=rhtml"/>
				</attachment>
			</content>
			<content>
				<attachment>
					<contentType value="text/xml"/>
					<language value="en-us"/>
					<url value="https://wandering-field.herokuapp.com/Content/en-us/ug2519.xml"/>
				</attachment>
			</content>
			<content>
				<attachment>
					<contentType value="application/pdf"/>
					<language value="en-us"/>
					<url value="https://wandering-field.herokuapp.com/Content/en-us/ug2519.pdf"/>
				</attachment>
			</content>
			<content>
				<attachment>
					<contentType value="application/atom+xml"/>
					<language value="es-us"/>
					<url value="https://wandering-field.herokuapp.com/Content/es-us/ug2519"/>
				</attachment>
			</content>
			<content>
				<attachment>
					<contentType value="text/html"/>
					<language value="es-us"/>
					<url value="https://wandering-field.herokuapp.com/Content/es-us/ug2519?hw.format=rhtml"/>
				</attachment>
			</content>
			<content>
				<attachment>
					<contentType value="text/xml"/>
					<language value="es-us"/>
					<url value="https://wandering-field.herokuapp.com/Content/es-us/ug2519.xml"/>
				</attachment>
			</content>
			<content>
				<attachment>
					<contentType value="application/pdf"/>
					<language value="es-us"/>
					<url value="https://wandering-field.herokuapp.com/Content/es-us/ug2519.pdf"/>
				</attachment>
			</content>
		</DocumentReference>
	</contained>
	<contained >
		<DocumentReference>
			<id value="InfoButtonResponse63"/>
			<type>
				<coding>
					<system value="http://loinc.org"/>
					<code value="34895-3"/>
					<display value="Education note"/>
				</coding>
			</type>
			<class>
				<coding>
					<system value="http://healthwise.org/doctype"/>
					<code value="drugdetail"/>
				</coding>
			</class>
			<author>
				<reference value="Organization/healthwise"/>
			</author>
			<custodian>
				<reference value="Organization/healthwise"/>
			</custodian>
			<created value="2016-08-30T22:03:41Z"/>
			<indexed value="2016-08-30T22:03:41Z"/>
			<status value="current"/>
			<docStatus>
				<coding>
					<system value="http://hl7.org/fhir/composition-status"/>
					<code value="final"/>
					<display value="final"/>
				</coding>
			</docStatus>
			<description value="Inhaled Corticosteroids for Long-Term Control of Asthma"/>
			<content>
				<attachment>
					<contentType value="application/atom+xml"/>
					<language value="en-us"/>
					<url value="https://wandering-field.herokuapp.com/Content/en-us/ug2865"/>
				</attachment>
			</content>
			<content>
				<attachment>
					<contentType value="text/html"/>
					<language value="en-us"/>
					<url value="https://wandering-field.herokuapp.com/Content/en-us/ug2865?hw.format=rhtml"/>
				</attachment>
			</content>
			<content>
				<attachment>
					<contentType value="text/xml"/>
					<language value="en-us"/>
					<url value="https://wandering-field.herokuapp.com/Content/en-us/ug2865.xml"/>
				</attachment>
			</content>
			<content>
				<attachment>
					<contentType value="application/pdf"/>
					<language value="en-us"/>
					<url value="https://wandering-field.herokuapp.com/Content/en-us/ug2865.pdf"/>
				</attachment>
			</content>
			<content>
				<attachment>
					<contentType value="application/atom+xml"/>
					<language value="es-us"/>
					<url value="https://wandering-field.herokuapp.com/Content/es-us/ug2865"/>
				</attachment>
			</content>
			<content>
				<attachment>
					<contentType value="text/html"/>
					<language value="es-us"/>
					<url value="https://wandering-field.herokuapp.com/Content/es-us/ug2865?hw.format=rhtml"/>
				</attachment>
			</content>
			<content>
				<attachment>
					<contentType value="text/xml"/>
					<language value="es-us"/>
					<url value="https://wandering-field.herokuapp.com/Content/es-us/ug2865.xml"/>
				</attachment>
			</content>
			<content>
				<attachment>
					<contentType value="application/pdf"/>
					<language value="es-us"/>
					<url value="https://wandering-field.herokuapp.com/Content/es-us/ug2865.pdf"/>
				</attachment>
			</content>
		</DocumentReference>
	</contained>
	<contained >
		<DocumentReference>
			<id value="InfoButtonResponse64"/>
			<type>
				<coding>
					<system value="http://loinc.org"/>
					<code value="34895-3"/>
					<display value="Education note"/>
				</coding>
			</type>
			<class>
				<coding>
					<system value="http://healthwise.org/doctype"/>
					<code value="otherdetail"/>
				</coding>
			</class>
			<author>
				<reference value="Organization/healthwise"/>
			</author>
			<custodian>
				<reference value="Organization/healthwise"/>
			</custodian>
			<created value="2016-08-30T22:03:41Z"/>
			<indexed value="2016-08-30T22:03:41Z"/>
			<status value="current"/>
			<docStatus>
				<coding>
					<system value="http://hl7.org/fhir/composition-status"/>
					<code value="final"/>
					<display value="final"/>
				</coding>
			</docStatus>
			<description value="Asthma Action Plan"/>
			<content>
				<attachment>
					<contentType value="application/atom+xml"/>
					<language value="en-us"/>
					<url value="https://wandering-field.herokuapp.com/Content/en-us/ug2879"/>
				</attachment>
			</content>
			<content>
				<attachment>
					<contentType value="text/html"/>
					<language value="en-us"/>
					<url value="https://wandering-field.herokuapp.com/Content/en-us/ug2879?hw.format=rhtml"/>
				</attachment>
			</content>
			<content>
				<attachment>
					<contentType value="text/xml"/>
					<language value="en-us"/>
					<url value="https://wandering-field.herokuapp.com/Content/en-us/ug2879.xml"/>
				</attachment>
			</content>
			<content>
				<attachment>
					<contentType value="application/pdf"/>
					<language value="en-us"/>
					<url value="https://wandering-field.herokuapp.com/Content/en-us/ug2879.pdf"/>
				</attachment>
			</content>
			<content>
				<attachment>
					<contentType value="application/atom+xml"/>
					<language value="es-us"/>
					<url value="https://wandering-field.herokuapp.com/Content/es-us/ug2879"/>
				</attachment>
			</content>
			<content>
				<attachment>
					<contentType value="text/html"/>
					<language value="es-us"/>
					<url value="https://wandering-field.herokuapp.com/Content/es-us/ug2879?hw.format=rhtml"/>
				</attachment>
			</content>
			<content>
				<attachment>
					<contentType value="text/xml"/>
					<language value="es-us"/>
					<url value="https://wandering-field.herokuapp.com/Content/es-us/ug2879.xml"/>
				</attachment>
			</content>
			<content>
				<attachment>
					<contentType value="application/pdf"/>
					<language value="es-us"/>
					<url value="https://wandering-field.herokuapp.com/Content/es-us/ug2879.pdf"/>
				</attachment>
			</content>
		</DocumentReference>
	</contained>
	<contained >
		<DocumentReference>
			<id value="InfoButtonResponse65"/>
			<type>
				<coding>
					<system value="http://loinc.org"/>
					<code value="34895-3"/>
					<display value="Education note"/>
				</coding>
			</type>
			<class>
				<coding>
					<system value="http://healthwise.org/doctype"/>
					<code value="special"/>
				</coding>
			</class>
			<author>
				<reference value="Organization/healthwise"/>
			</author>
			<custodian>
				<reference value="Organization/healthwise"/>
			</custodian>
			<created value="2016-08-30T22:03:41Z"/>
			<indexed value="2016-08-30T22:03:41Z"/>
			<status value="current"/>
			<docStatus>
				<coding>
					<system value="http://hl7.org/fhir/composition-status"/>
					<code value="final"/>
					<display value="final"/>
				</coding>
			</docStatus>
			<description value="Assessing Your Asthma Knowledge"/>
			<content>
				<attachment>
					<contentType value="application/atom+xml"/>
					<language value="en-us"/>
					<url value="https://wandering-field.herokuapp.com/Content/en-us/ug2886"/>
				</attachment>
			</content>
			<content>
				<attachment>
					<contentType value="text/html"/>
					<language value="en-us"/>
					<url value="https://wandering-field.herokuapp.com/Content/en-us/ug2886?hw.format=rhtml"/>
				</attachment>
			</content>
			<content>
				<attachment>
					<contentType value="text/xml"/>
					<language value="en-us"/>
					<url value="https://wandering-field.herokuapp.com/Content/en-us/ug2886.xml"/>
				</attachment>
			</content>
			<content>
				<attachment>
					<contentType value="application/pdf"/>
					<language value="en-us"/>
					<url value="https://wandering-field.herokuapp.com/Content/en-us/ug2886.pdf"/>
				</attachment>
			</content>
			<content>
				<attachment>
					<contentType value="application/atom+xml"/>
					<language value="es-us"/>
					<url value="https://wandering-field.herokuapp.com/Content/es-us/ug2886"/>
				</attachment>
			</content>
			<content>
				<attachment>
					<contentType value="text/html"/>
					<language value="es-us"/>
					<url value="https://wandering-field.herokuapp.com/Content/es-us/ug2886?hw.format=rhtml"/>
				</attachment>
			</content>
			<content>
				<attachment>
					<contentType value="text/xml"/>
					<language value="es-us"/>
					<url value="https://wandering-field.herokuapp.com/Content/es-us/ug2886.xml"/>
				</attachment>
			</content>
			<content>
				<attachment>
					<contentType value="application/pdf"/>
					<language value="es-us"/>
					<url value="https://wandering-field.herokuapp.com/Content/es-us/ug2886.pdf"/>
				</attachment>
			</content>
		</DocumentReference>
	</contained>
	<contained >
		<DocumentReference>
			<id value="InfoButtonResponse66"/>
			<type>
				<coding>
					<system value="http://loinc.org"/>
					<code value="34895-3"/>
					<display value="Education note"/>
				</coding>
			</type>
			<class>
				<coding>
					<system value="http://healthwise.org/doctype"/>
					<code value="caresupport"/>
				</coding>
			</class>
			<author>
				<reference value="Organization/healthwise"/>
			</author>
			<custodian>
				<reference value="Organization/healthwise"/>
			</custodian>
			<created value="2016-08-30T22:03:41Z"/>
			<indexed value="2016-08-30T22:03:41Z"/>
			<status value="current"/>
			<docStatus>
				<coding>
					<system value="http://hl7.org/fhir/composition-status"/>
					<code value="final"/>
					<display value="final"/>
				</coding>
			</docStatus>
			<description value="Asthma: Medicines for Teens and Adults"/>
			<content>
				<attachment>
					<contentType value="application/pdf"/>
					<language value="en-us"/>
					<url value="https://wandering-field.herokuapp.com/Content/en-us/ug3290.pdf"/>
				</attachment>
			</content>
			<content>
				<attachment>
					<contentType value="application/pdf"/>
					<language value="es-us"/>
					<url value="https://wandering-field.herokuapp.com/Content/es-us/ug3290.pdf"/>
				</attachment>
			</content>
		</DocumentReference>
	</contained>
	<contained >
		<DocumentReference>
			<id value="InfoButtonResponse67"/>
			<type>
				<coding>
					<system value="http://loinc.org"/>
					<code value="34895-3"/>
					<display value="Education note"/>
				</coding>
			</type>
			<class>
				<coding>
					<system value="http://healthwise.org/doctype"/>
					<code value="caresupport"/>
				</coding>
			</class>
			<author>
				<reference value="Organization/healthwise"/>
			</author>
			<custodian>
				<reference value="Organization/healthwise"/>
			</custodian>
			<created value="2016-08-30T22:03:41Z"/>
			<indexed value="2016-08-30T22:03:41Z"/>
			<status value="current"/>
			<docStatus>
				<coding>
					<system value="http://hl7.org/fhir/composition-status"/>
					<code value="final"/>
					<display value="final"/>
				</coding>
			</docStatus>
			<description value="Asthma: Managing Your Asthma"/>
			<content>
				<attachment>
					<contentType value="application/pdf"/>
					<language value="en-us"/>
					<url value="https://wandering-field.herokuapp.com/Content/en-us/tu6642.pdf"/>
				</attachment>
			</content>
			<content>
				<attachment>
					<contentType value="application/pdf"/>
					<language value="es-us"/>
					<url value="https://wandering-field.herokuapp.com/Content/es-us/tu6642.pdf"/>
				</attachment>
			</content>
		</DocumentReference>
	</contained>
	<contained >
		<DocumentReference>
			<id value="InfoButtonResponse68"/>
			<type>
				<coding>
					<system value="http://loinc.org"/>
					<code value="34895-3"/>
					<display value="Education note"/>
				</coding>
			</type>
			<class>
				<coding>
					<system value="http://healthwise.org/doctype"/>
					<code value="caresupport"/>
				</coding>
			</class>
			<author>
				<reference value="Organization/healthwise"/>
			</author>
			<custodian>
				<reference value="Organization/healthwise"/>
			</custodian>
			<created value="2016-08-30T22:03:41Z"/>
			<indexed value="2016-08-30T22:03:41Z"/>
			<status value="current"/>
			<docStatus>
				<coding>
					<system value="http://hl7.org/fhir/composition-status"/>
					<code value="final"/>
					<display value="final"/>
				</coding>
			</docStatus>
			<description value="Asthma: Identifying Your Triggers"/>
			<content>
				<attachment>
					<contentType value="application/pdf"/>
					<language value="en-us"/>
					<url value="https://wandering-field.herokuapp.com/Content/en-us/zp3812.pdf"/>
				</attachment>
			</content>
			<content>
				<attachment>
					<contentType value="application/pdf"/>
					<language value="es-us"/>
					<url value="https://wandering-field.herokuapp.com/Content/es-us/zp3812.pdf"/>
				</attachment>
			</content>
		</DocumentReference>
	</contained>
	<contained >
		<DocumentReference>
			<id value="InfoButtonResponse69"/>
			<type>
				<coding>
					<system value="http://loinc.org"/>
					<code value="34895-3"/>
					<display value="Education note"/>
				</coding>
			</type>
			<class>
				<coding>
					<system value="http://healthwise.org/doctype"/>
					<code value="caresupport"/>
				</coding>
			</class>
			<author>
				<reference value="Organization/healthwise"/>
			</author>
			<custodian>
				<reference value="Organization/healthwise"/>
			</custodian>
			<created value="2016-08-30T22:03:41Z"/>
			<indexed value="2016-08-30T22:03:41Z"/>
			<status value="current"/>
			<docStatus>
				<coding>
					<system value="http://hl7.org/fhir/composition-status"/>
					<code value="final"/>
					<display value="final"/>
				</coding>
			</docStatus>
			<description value="Breathing Problems: How to Use a Metered-Dose Inhaler"/>
			<content>
				<attachment>
					<contentType value="application/pdf"/>
					<language value="en-us"/>
					<url value="https://wandering-field.herokuapp.com/Content/en-us/zp3815.pdf"/>
				</attachment>
			</content>
			<content>
				<attachment>
					<contentType value="application/pdf"/>
					<language value="es-us"/>
					<url value="https://wandering-field.herokuapp.com/Content/es-us/zp3815.pdf"/>
				</attachment>
			</content>
		</DocumentReference>
	</contained>
	<contained >
		<DocumentReference>
			<id value="InfoButtonResponse70"/>
			<type>
				<coding>
					<system value="http://loinc.org"/>
					<code value="34895-3"/>
					<display value="Education note"/>
				</coding>
			</type>
			<class>
				<coding>
					<system value="http://healthwise.org/doctype"/>
					<code value="caresupport"/>
				</coding>
			</class>
			<author>
				<reference value="Organization/healthwise"/>
			</author>
			<custodian>
				<reference value="Organization/healthwise"/>
			</custodian>
			<created value="2016-08-30T22:03:41Z"/>
			<indexed value="2016-08-30T22:03:41Z"/>
			<status value="current"/>
			<docStatus>
				<coding>
					<system value="http://hl7.org/fhir/composition-status"/>
					<code value="final"/>
					<display value="final"/>
				</coding>
			</docStatus>
			<description value="Asthma: How to Use a Peak Flow Meter"/>
			<content>
				<attachment>
					<contentType value="application/pdf"/>
					<language value="en-us"/>
					<url value="https://wandering-field.herokuapp.com/Content/en-us/tb1497.pdf"/>
				</attachment>
			</content>
			<content>
				<attachment>
					<contentType value="application/pdf"/>
					<language value="es-us"/>
					<url value="https://wandering-field.herokuapp.com/Content/es-us/tb1497.pdf"/>
				</attachment>
			</content>
		</DocumentReference>
	</contained>
	<contained >
		<DocumentReference>
			<id value="InfoButtonResponse71"/>
			<type>
				<coding>
					<system value="http://loinc.org"/>
					<code value="34895-3"/>
					<display value="Education note"/>
				</coding>
			</type>
			<class>
				<coding>
					<system value="http://healthwise.org/doctype"/>
					<code value="cam"/>
				</coding>
			</class>
			<author>
				<reference value="Organization/healthwise"/>
			</author>
			<custodian>
				<reference value="Organization/healthwise"/>
			</custodian>
			<created value="2016-08-30T22:03:41Z"/>
			<indexed value="2016-08-30T22:03:41Z"/>
			<status value="current"/>
			<docStatus>
				<coding>
					<system value="http://hl7.org/fhir/composition-status"/>
					<code value="final"/>
					<display value="final"/>
				</coding>
			</docStatus>
			<description value="Asthma (Holistic)"/>
			<content>
				<attachment>
					<contentType value="application/atom+xml"/>
					<language value="en-us"/>
					<url value="https://wandering-field.herokuapp.com/Content/en-us/hn-1012000"/>
				</attachment>
			</content>
			<content>
				<attachment>
					<contentType value="text/html"/>
					<language value="en-us"/>
					<url value="https://wandering-field.herokuapp.com/Content/en-us/hn-1012000?hw.format=rhtml"/>
				</attachment>
			</content>
			<content>
				<attachment>
					<contentType value="text/xml"/>
					<language value="en-us"/>
					<url value="https://wandering-field.herokuapp.com/Content/en-us/hn-1012000.xml"/>
				</attachment>
			</content>
			<content>
				<attachment>
					<contentType value="application/pdf"/>
					<language value="en-us"/>
					<url value="https://wandering-field.herokuapp.com/Content/en-us/hn-1012000.pdf"/>
				</attachment>
			</content>
		</DocumentReference>
	</contained>
	<contained >
		<DocumentReference>
			<id value="InfoButtonResponse72"/>
			<type>
				<coding>
					<system value="http://loinc.org"/>
					<code value="34895-3"/>
					<display value="Education note"/>
				</coding>
			</type>
			<class>
				<coding>
					<system value="http://healthwise.org/doctype"/>
					<code value="cam"/>
				</coding>
			</class>
			<author>
				<reference value="Organization/healthwise"/>
			</author>
			<custodian>
				<reference value="Organization/healthwise"/>
			</custodian>
			<created value="2016-08-30T22:03:41Z"/>
			<indexed value="2016-08-30T22:03:41Z"/>
			<status value="current"/>
			<docStatus>
				<coding>
					<system value="http://hl7.org/fhir/composition-status"/>
					<code value="final"/>
					<display value="final"/>
				</coding>
			</docStatus>
			<description value="Asthma (Homeopathy)"/>
			<content>
				<attachment>
					<contentType value="application/atom+xml"/>
					<language value="en-us"/>
					<url value="https://wandering-field.herokuapp.com/Content/en-us/hn-2196003"/>
				</attachment>
			</content>
			<content>
				<attachment>
					<contentType value="text/html"/>
					<language value="en-us"/>
					<url value="https://wandering-field.herokuapp.com/Content/en-us/hn-2196003?hw.format=rhtml"/>
				</attachment>
			</content>
			<content>
				<attachment>
					<contentType value="text/xml"/>
					<language value="en-us"/>
					<url value="https://wandering-field.herokuapp.com/Content/en-us/hn-2196003.xml"/>
				</attachment>
			</content>
			<content>
				<attachment>
					<contentType value="application/pdf"/>
					<language value="en-us"/>
					<url value="https://wandering-field.herokuapp.com/Content/en-us/hn-2196003.pdf"/>
				</attachment>
			</content>
		</DocumentReference>
	</contained>
	<requestId value="InfoButtonRequest2"/>
	<module>
		<reference value="DecisionSupportServiceModule/infobutton"/>
	</module>
	<status value="success"/>
	<action >
		<title value="Asthma"/>
		<description value="Provides links to how-to information about asthma. Includes info on asthma in teens and adults, using an asthma action plan, and using inhalers."/>
		<documentation>
			<type value="documentation"/>
			<resource>
				<reference value="#InfoButtonResponse1"/>
			</resource>
		</documentation>
	</action>
	<action >
		<title value="Asthma in Teens and Adults"/>
		<description value="Covers causes and symptoms of asthma in teens and adults. Includes info on avoiding triggers and treating attacks. Looks at treatment with controller medicine. Covers delivery systems that include metered-dose and dry powder inhalers and nebulizers."/>
		<documentation>
			<type value="documentation"/>
			<resource>
				<reference value="#InfoButtonResponse2"/>
			</resource>
		</documentation>
	</action>
	<action >
		<title value="Asthma in Adults: Care Instructions"/>
		<description value="During an asthma attack, your airways swell and narrow as a reaction to certain things (triggers). This makes it hard to breathe."/>
		<documentation>
			<type value="documentation"/>
			<resource>
				<reference value="#InfoButtonResponse3"/>
			</resource>
		</documentation>
	</action>
	<action >
		<title value="Asthma in Teens and Adults"/>
		<description value="Asthma often starts when&#10;&#9;&#9;  you are a child or teen, or you may get it as an adult. Symptoms can range from&#10;&#9;&#9;  mild to severe. You may have attacks often or only now and then. Things in your&#10;&#9;&#9;  environment such as smoke, pollen, mold, or cold..."/>
		<documentation>
			<type value="documentation"/>
			<resource>
				<reference value="#InfoButtonResponse4"/>
			</resource>
		</documentation>
	</action>
	<action >
		<title value="Asthma: Using an Asthma Action Plan"/>
		<description value="Covers using an asthma action plan for asthma attacks. Explains green, yellow, and red zones in an action plan. Covers what medicines to take in each zone. Reviews what to do if an attack becomes an emergency."/>
		<documentation>
			<type value="documentation"/>
			<resource>
				<reference value="#InfoButtonResponse5"/>
			</resource>
		</documentation>
	</action>
	<action >
		<title value="Breathing Problems: Using a Metered-Dose Inhaler"/>
		<description value="Diseases affecting the lungs&#x2014;such as&#10;&#9;&#9;  asthma,&#10;&#9;&#9;  emphysema,&#10;&#9;&#9;  chronic bronchitis, and&#10;&#9;&#9;  chronic obstructive pulmonary disease (COPD)&#x2014;share&#10;&#9;&#9;  many of the same medicines. These medicines are often delivered through a &#10;&#9;&#9;  metered-dose&#10;&#9;&#9; ..."/>
		<documentation>
			<type value="documentation"/>
			<resource>
				<reference value="#InfoButtonResponse6"/>
			</resource>
		</documentation>
	</action>
	<action >
		<title value="Asthma Action Plan"/>
		<description value="Learn how following an asthma action plan can help you take control of your asthma."/>
		<documentation>
			<type value="documentation"/>
			<resource>
				<reference value="#InfoButtonResponse7"/>
			</resource>
		</documentation>
	</action>
	<action >
		<title value="Asthma: Your Action Plan"/>
		<description value="Fill in the blank spaces and boxes that apply for all sections."/>
		<documentation>
			<type value="documentation"/>
			<resource>
				<reference value="#InfoButtonResponse8"/>
			</resource>
		</documentation>
	</action>
	<action >
		<title value="Controlling Your Asthma: Care Instructions"/>
		<description value="Asthma is a long-term condition that affects your breathing. It causes the airways that lead to the lungs to swell. During an asthma attack, the airways swell and narrow. This makes it hard to breathe. You may wheeze or cough. If you have a bad..."/>
		<documentation>
			<type value="documentation"/>
			<resource>
				<reference value="#InfoButtonResponse9"/>
			</resource>
		</documentation>
	</action>
	<action >
		<title value="Asthma: How to Use an Asthma Action Plan"/>
		<description value="Asthma can cause inflammation and swelling in the airways. This can lead to long-term lung damage. It is important to treat this inflammation to limit damage to the lungs. You also need to know how to quickly treat an asthma attack. An asthma action..."/>
		<documentation>
			<type value="documentation"/>
			<resource>
				<reference value="#InfoButtonResponse10"/>
			</resource>
		</documentation>
	</action>
	<action >
		<title value="Asthma: When to Call a Doctor"/>
		<description value="When you or your child has asthma, it is important to know the symptoms of difficulty breathing. It can help you make quick decisions about medicine and other treatment.Follow your asthma action plan to know how to prevent an asthma attack or make..."/>
		<documentation>
			<type value="documentation"/>
			<resource>
				<reference value="#InfoButtonResponse11"/>
			</resource>
		</documentation>
	</action>
	<action >
		<title value="Asthma: Taking Charge of Your Asthma"/>
		<description value="Covers control of asthma with asthma action plan. Includes working with doctor on a plan and medicines for symptoms and attacks. Includes use of controller medicine and peak flow meter. Reviews avoiding triggers and keeping asthma diary."/>
		<documentation>
			<type value="documentation"/>
			<resource>
				<reference value="#InfoButtonResponse12"/>
			</resource>
		</documentation>
	</action>
	<action >
		<title value="Learning About Asthma Triggers"/>
		<description value="When you&#10;&#9;&#9;  have asthma, certain things can make your symptoms worse. These are called&#10;&#9;&#9;  triggers. Learn what triggers an asthma attack for you, and avoid the triggers&#10;&#9;&#9;  when you can. Common triggers include colds, smoke, air pollution,..."/>
		<documentation>
			<type value="documentation"/>
			<resource>
				<reference value="#InfoButtonResponse13"/>
			</resource>
		</documentation>
	</action>
	<action >
		<title value="Inhaled corticosteroids for asthma"/>
		<description value="What are the most important things you need to know about your medicines?"/>
		<documentation>
			<type value="documentation"/>
			<resource>
				<reference value="#InfoButtonResponse14"/>
			</resource>
		</documentation>
	</action>
	<action >
		<title value="Inhaled quick-relief medicines for asthma"/>
		<description value="What are the most important things you need to know about your medicines?"/>
		<documentation>
			<type value="documentation"/>
			<resource>
				<reference value="#InfoButtonResponse15"/>
			</resource>
		</documentation>
	</action>
	<action >
		<title value="Asthma Attack: Care Instructions"/>
		<description value="During an asthma attack, the airways swell and narrow. This makes it hard to breathe. Severe asthma attacks can be life-threatening, but you can help prevent them by keeping your asthma under control and treating symptoms before they get bad...."/>
		<documentation>
			<type value="documentation"/>
			<resource>
				<reference value="#InfoButtonResponse16"/>
			</resource>
		</documentation>
	</action>
	<action >
		<title value="Nebulizer for Asthma Treatment"/>
		<description value="A nebulizer is a device used to deliver liquid medicine in the form of a fine&#10;mist (aerosol). It is sometimes used for&#10;&#9;&#9;asthma because:"/>
		<documentation>
			<type value="documentation"/>
			<resource>
				<reference value="#InfoButtonResponse17"/>
			</resource>
		</documentation>
	</action>
	<action >
		<title value="Asthma and Vocal Cord Problems"/>
		<description value="Vocal cord dysfunction is the uncontrolled closing of the vocal cords&#10;&#9;&#9;when you breathe in. The symptoms can seem to be the same as those of&#10;&#9;&#9;asthma and may occur alone or along with asthma. If&#10;&#9;&#9;you have asthma and vocal cord dysfunction, it may..."/>
		<documentation>
			<type value="documentation"/>
			<resource>
				<reference value="#InfoButtonResponse18"/>
			</resource>
		</documentation>
	</action>
	<action >
		<title value="Asthma Action Plan: Green Zone"/>
		<description value="An&#10;&#9;&#9;asthma action plan is based on zones defined by your symptoms, your peak flow, or both. It tells you what to do if&#10;&#9;&#9;you or your child has a sudden increase in asthma symptoms (asthma attack)."/>
		<documentation>
			<type value="documentation"/>
			<resource>
				<reference value="#InfoButtonResponse19"/>
			</resource>
		</documentation>
	</action>
	<action >
		<title value="Asthma: Peak Expiratory Flow and Personal Best"/>
		<description value="Peak expiratory flow (PEF) measures how&#10;&#9;&#9;much air you or your child can breathe out using the greatest effort. It is used in&#10;&#9;&#9;the monitoring and treatment of&#10;&#9;&#9;asthma to determine how well your lungs are&#10;&#9;&#9;functioning. Your peak flow drops when..."/>
		<documentation>
			<type value="documentation"/>
			<resource>
				<reference value="#InfoButtonResponse20"/>
			</resource>
		</documentation>
	</action>
	<action >
		<title value="Asthma: How to Overcome Treatment Obstacles"/>
		<description value="Asthma is a long-lasting (chronic) disease that may&#10;&#9;&#9;last throughout your life&#x2014;you must treat it long term. But following a&#10;&#9;&#9;management plan can be difficult over a long period of time."/>
		<documentation>
			<type value="documentation"/>
			<resource>
				<reference value="#InfoButtonResponse21"/>
			</resource>
		</documentation>
	</action>
	<action >
		<title value="Asthma and Wheezing"/>
		<description value="Wheezing is a whistling noise that occurs when the&#10;&#9;&#9;bronchial tubes, which carry air to the lungs, narrow&#10;&#9;&#9;because of&#10;&#9;&#9;inflammation or&#10;&#9;&#9;mucus buildup. Wheezing is often present in&#10;&#9;&#9;asthma."/>
		<documentation>
			<type value="documentation"/>
			<resource>
				<reference value="#InfoButtonResponse22"/>
			</resource>
		</documentation>
	</action>
	<action >
		<title value="Asthma: Measuring Peak Flow"/>
		<description value="As someone with&#10;&#9;&#9;  asthma, you know how important it is to monitor your&#10;&#9;&#9;  condition. Your doctor may want you to know how well your lungs are &quot;working.&quot; Is their ability&#10;&#9;&#9;  to move air in and out staying the same, or is it getting better or&#10;&#9;&#9;  worse?"/>
		<documentation>
			<type value="documentation"/>
			<resource>
				<reference value="#InfoButtonResponse23"/>
			</resource>
		</documentation>
	</action>
	<action >
		<title value="Asthma: Identifying Your Triggers"/>
		<description value="Asthma is a&#10;&#9;&#9;  long-lasting (chronic) disease of the&#10;&#9;&#9;  respiratory system. It causes&#10;&#9;&#9;  inflammation in tubes that carry air to the lungs&#10;&#9;&#9;  (bronchial tubes). The inflammation makes your bronchial tubes likely to&#10;&#9;&#9;  overreact to certain..."/>
		<documentation>
			<type value="documentation"/>
			<resource>
				<reference value="#InfoButtonResponse24"/>
			</resource>
		</documentation>
	</action>
	<action >
		<title value="Learning About Asthma"/>
		<description value="Asthma is a long-term condition that affects your breathing. It causes the airways that lead to the lungs to swell."/>
		<documentation>
			<type value="documentation"/>
			<resource>
				<reference value="#InfoButtonResponse25"/>
			</resource>
		</documentation>
	</action>
	<action >
		<title value="Asthma: Using an Inhaler and Spacer"/>
		<description value="Learn the correct way to use a spacer with your inhaler."/>
		<documentation>
			<type value="documentation"/>
			<resource>
				<reference value="#InfoButtonResponse26"/>
			</resource>
		</documentation>
	</action>
	<action >
		<title value="Stories From People Controlling Their Asthma"/>
		<description value="Hear how others with asthma have learned to control their symptoms."/>
		<documentation>
			<type value="documentation"/>
			<resource>
				<reference value="#InfoButtonResponse27"/>
			</resource>
		</documentation>
	</action>
	<action >
		<title value="Asthma: Myths About Inhaled Steroids"/>
		<description value="Learn common myths about inhaled steroids, which are some of the best medicines for controlling asthma."/>
		<documentation>
			<type value="documentation"/>
			<resource>
				<reference value="#InfoButtonResponse28"/>
			</resource>
		</documentation>
	</action>
	<action >
		<title value="Dealing With Asthma Triggers"/>
		<description value="Learn how to avoid common asthma triggers to better control your symptoms."/>
		<documentation>
			<type value="documentation"/>
			<resource>
				<reference value="#InfoButtonResponse29"/>
			</resource>
		</documentation>
	</action>
	<action >
		<title value="Asthma: Your Action Plan"/>
		<description value="Following your asthma action plan can help you have fewer problems.  Here's a sample plan you can use.Sample action plan Name of controller medicine  How much do you take? How often do you take it?Other instructions &#xA0;&#xA0;&#xA0;&#xA0;&#xA0;&#xA0;&#xA0;&#xA0; Name of..."/>
		<documentation>
			<type value="documentation"/>
			<resource>
				<reference value="#InfoButtonResponse30"/>
			</resource>
		</documentation>
	</action>
	<action >
		<title value="Asthma: The Importance of Controller Medicines"/>
		<description value="Learn why your controller medicines are so important."/>
		<documentation>
			<type value="documentation"/>
			<resource>
				<reference value="#InfoButtonResponse31"/>
			</resource>
		</documentation>
	</action>
	<action >
		<title value="Asthma: What Happens in Your Lungs"/>
		<description value="Learn what's going on in the lungs that can make it hard to breathe when you have asthma."/>
		<documentation>
			<type value="documentation"/>
			<resource>
				<reference value="#InfoButtonResponse32"/>
			</resource>
		</documentation>
	</action>
	<action >
		<title value="Using a Metered-Dose Inhaler Without a Spacer"/>
		<description value="Learn the correct way to use an inhaler that doesn't have a spacer."/>
		<documentation>
			<type value="documentation"/>
			<resource>
				<reference value="#InfoButtonResponse33"/>
			</resource>
		</documentation>
	</action>
	<action >
		<title value="Using a Dry Powder Inhaler"/>
		<description value="Learn the right way to use a dry powder inhaler to help control your asthma."/>
		<documentation>
			<type value="documentation"/>
			<resource>
				<reference value="#InfoButtonResponse34"/>
			</resource>
		</documentation>
	</action>
	<action >
		<title value="Checking Peak Flow"/>
		<description value="Learn how to use a peak flow meter to check how well your lungs are working."/>
		<documentation>
			<type value="documentation"/>
			<resource>
				<reference value="#InfoButtonResponse35"/>
			</resource>
		</documentation>
	</action>
	<action >
		<title value="Steroid Medicine for Asthma: Myths and Facts"/>
		<description value="Asthma is more than a day-to-day problem that makes your life difficult. Over time it damages your airways and lungs. That damage can lead to serious health problems.  So it's important to keep your asthma under control with medicine."/>
		<documentation>
			<type value="documentation"/>
			<resource>
				<reference value="#InfoButtonResponse36"/>
			</resource>
		</documentation>
	</action>
	<action >
		<title value="Classification of Asthma"/>
		<description value="The National Asthma Education and Prevention Program has&#10;&#9;&#9;classified&#10;&#9;&#9;asthma as:"/>
		<documentation>
			<type value="documentation"/>
			<resource>
				<reference value="#InfoButtonResponse37"/>
			</resource>
		</documentation>
	</action>
	<action >
		<title value="Challenge Tests for Asthma"/>
		<description value="Exercise challenge and inhalation challenge tests are sometimes used&#10;&#9;&#9;to diagnose&#10;&#9;&#9;asthma and  workplace asthma (occupational asthma)."/>
		<documentation>
			<type value="documentation"/>
			<resource>
				<reference value="#InfoButtonResponse38"/>
			</resource>
		</documentation>
	</action>
	<action >
		<title value="Asthma Action Plan: Yellow Zone"/>
		<description value="An&#10;&#9;&#9;asthma action plan is based on zones defined by your symptoms or your peak flow, or both. It tells you what to do if&#10;&#9;&#9;you have a sudden increase in your asthma symptoms (asthma attack)."/>
		<documentation>
			<type value="documentation"/>
			<resource>
				<reference value="#InfoButtonResponse39"/>
			</resource>
		</documentation>
	</action>
	<action >
		<title value="Asthma Triggers"/>
		<description value="An&#10;&#9;&#9;asthma trigger is a factor that can lead to sudden&#10;&#9;&#9;difficulty breathing or other symptoms of asthma (asthma attack)."/>
		<documentation>
			<type value="documentation"/>
			<resource>
				<reference value="#InfoButtonResponse40"/>
			</resource>
		</documentation>
	</action>
	<action >
		<title value="Asthma Action Plan: Red Zone"/>
		<description value="An&#10;&#9;&#9;asthma action plan is based on zones defined by your symptoms, your peak flow, or both. It tells you what to do if&#10;&#9;&#9;you have a sudden increase in your asthma symptoms (asthma attack)."/>
		<documentation>
			<type value="documentation"/>
			<resource>
				<reference value="#InfoButtonResponse41"/>
			</resource>
		</documentation>
	</action>
	<action >
		<title value="Asthma and GERD"/>
		<description value="Gastroesophageal reflux disease (GERD) is the abnormal&#10;&#9;&#9;backflow, or reflux, of stomach juices into the esophagus, the tube that leads&#10;&#9;&#9;from the throat to the stomach."/>
		<documentation>
			<type value="documentation"/>
			<resource>
				<reference value="#InfoButtonResponse42"/>
			</resource>
		</documentation>
	</action>
	<action >
		<title value="Occupational Asthma"/>
		<description value="Occupational asthma is the most common form of work-related lung&#10;&#9;&#9;disease in many countries. When a person develops asthma as an adult,&#10;&#9;&#9;occupational exposure is a likely cause."/>
		<documentation>
			<type value="documentation"/>
			<resource>
				<reference value="#InfoButtonResponse43"/>
			</resource>
		</documentation>
	</action>
	<action >
		<title value="Asthma Attack"/>
		<description value="An&#10;&#9;&#9;asthma attack (also called an acute asthma episode,&#10;&#9;&#9;flare-up, or exacerbation) is a sudden increase in the symptoms of asthma,&#10;&#9;&#9;including:"/>
		<documentation>
			<type value="documentation"/>
			<resource>
				<reference value="#InfoButtonResponse44"/>
			</resource>
		</documentation>
	</action>
	<action >
		<title value="Asthma: Symptoms of Difficulty Breathing"/>
		<description value="It is important to know the symptoms of difficulty&#10;&#9;&#9;breathing in&#10;&#9;&#9;asthma. If you or your child is having trouble&#10;&#9;&#9;breathing, follow your asthma action plan."/>
		<documentation>
			<type value="documentation"/>
			<resource>
				<reference value="#InfoButtonResponse45"/>
			</resource>
		</documentation>
	</action>
	<action >
		<title value="Asthma Treatment Goals"/>
		<description value="The American Academy of Allergy, Asthma, and Immunology&#10;&#9;&#9;(AAAAI) and the American College of Allergy, Asthma, and Immunology (ACAAI)&#10;&#9;&#9;have developed guidelines for getting&#10;&#9;&#9;asthma under control. They list the goals of asthma&#10;&#9;&#9;treatment as:footnote 1"/>
		<documentation>
			<type value="documentation"/>
			<resource>
				<reference value="#InfoButtonResponse46"/>
			</resource>
		</documentation>
	</action>
	<action >
		<title value="Asthma: Overcoming Obstacles to Taking Medicines"/>
		<description value="Asthma is a long-lasting (chronic) disease that may&#10;&#9;&#9;last throughout your life&#x2014;you must treat it long term. Taking medicines and&#10;&#9;&#9;following a management plan can be difficult over a long period of time."/>
		<documentation>
			<type value="documentation"/>
			<resource>
				<reference value="#InfoButtonResponse47"/>
			</resource>
		</documentation>
	</action>
	<action >
		<title value="Asthma: Controlling Cockroaches"/>
		<description value="Exposure to cockroaches may increase&#10;&#9;&#9;asthma symptoms. Cockroaches leave behind particles from their feces, eggs, and shells that can&#10;cause an allergic reaction. Cockroaches are a problem in many&#10;&#9;&#9;homes, especially in the southern part of the..."/>
		<documentation>
			<type value="documentation"/>
			<resource>
				<reference value="#InfoButtonResponse48"/>
			</resource>
		</documentation>
	</action>
	<action >
		<title value="Asthma: Educating Yourself and Your Child"/>
		<description value="Educating yourself and your family about&#10;&#9;&#9;asthma is essential for you and your child to have&#10;&#9;&#9;control of the disease. If you understand asthma, you will have an easier time&#10;&#9;&#9;following the different aspects of treatment, such as avoiding..."/>
		<documentation>
			<type value="documentation"/>
			<resource>
				<reference value="#InfoButtonResponse49"/>
			</resource>
		</documentation>
	</action>
	<action >
		<title value="Allergy Shots for Asthma"/>
		<description value="Allergy shots are a type of immunotherapy&#10;&#9;&#9;  treatment in which small doses of substances to which you are allergic (allergens) are injected under your skin. Over time,&#10;&#9;&#9;  your body may become less responsive to the allergens, which means you may..."/>
		<documentation>
			<type value="documentation"/>
			<resource>
				<reference value="#InfoButtonResponse50"/>
			</resource>
		</documentation>
	</action>
	<action >
		<title value="Short-Acting Beta2-Agonists for Quick Relief of Asthma Symptoms"/>
		<description value="Looks at bronchodilator medicines for asthma. Lists generic and brand names, such as albuterol (Proventil), levalbuterol (Xopenex), and terbutaline. Info on how well beta-2 agonists work, side effects, and warning not to overuse."/>
		<documentation>
			<type value="documentation"/>
			<resource>
				<reference value="#InfoButtonResponse51"/>
			</resource>
		</documentation>
	</action>
	<action >
		<title value="Theophylline for Long-Term Control of Asthma"/>
		<description value="Example(s): Elixophyllin,Theochron (theophylline)"/>
		<documentation>
			<type value="documentation"/>
			<resource>
				<reference value="#InfoButtonResponse52"/>
			</resource>
		</documentation>
	</action>
	<action >
		<title value="Anticholinergics for Asthma"/>
		<description value="Example(s): Atrovent (ipratropium),Combivent,DuoNeb (ipratropium and albuterol)"/>
		<documentation>
			<type value="documentation"/>
			<resource>
				<reference value="#InfoButtonResponse53"/>
			</resource>
		</documentation>
	</action>
	<action >
		<title value="Long-Acting Beta2-Agonists for Long-Term Control of Asthma"/>
		<description value="Covers medicines used in metered-dose or dry powder inhaler to treat asthma. Lists generic and brand names like budesonide and formoterol (Symbicort) and fluticasone and salmeterol (Advair). Covers how well they work and side effects."/>
		<documentation>
			<type value="documentation"/>
			<resource>
				<reference value="#InfoButtonResponse54"/>
			</resource>
		</documentation>
	</action>
	<action >
		<title value="Leukotriene Pathway Modifiers for Long-Term Control of Asthma"/>
		<description value="Example(s): Singulair (montelukast),Accolate (zafirlukast),Zyflo (zileuton)"/>
		<documentation>
			<type value="documentation"/>
			<resource>
				<reference value="#InfoButtonResponse55"/>
			</resource>
		</documentation>
	</action>
	<action >
		<title value="Controlling Dust, Dust Mites, and Other Allergens in Your Home"/>
		<description value="Dust builds up throughout your home. The dust may&#10;&#9;&#9;contain substances that trigger asthma symptoms, such as wheezing or coughing,&#10;&#9;&#9;or another&#10;&#9;&#9;allergic reaction, such as the rash of&#10;&#9;&#9;atopic dermatitis or stuffy nose of&#10;&#9;&#9;allergic rhinitis. These..."/>
		<documentation>
			<type value="documentation"/>
			<resource>
				<reference value="#InfoButtonResponse56"/>
			</resource>
		</documentation>
	</action>
	<action >
		<title value="Breathing Problems: Using a Dry Powder Inhaler"/>
		<description value="Covers using an inhaler to get needed medicine into lungs quickly. Describes dry powder inhalers, how they work, and why to use them. Includes pictures on how to use a dry powder inhaler."/>
		<documentation>
			<type value="documentation"/>
			<resource>
				<reference value="#InfoButtonResponse57"/>
			</resource>
		</documentation>
	</action>
	<action >
		<title value="Monitoring Asthma Treatment"/>
		<description value="The severity of&#10;&#9;&#9;asthma can vary, and asthma often requires changes in&#10;&#9;&#9;your treatment to control it. To ensure that you are getting the proper&#10;&#9;&#9;treatment, you have to continuously monitor and evaluate the disease and&#10;&#9;&#9;communicate with your doctor."/>
		<documentation>
			<type value="documentation"/>
			<resource>
				<reference value="#InfoButtonResponse58"/>
			</resource>
		</documentation>
	</action>
	<action >
		<title value="Omalizumab for Asthma"/>
		<description value="Omalizumab (Xolair) is a medicine approved by the U.S. Food&#10;&#9;&#9;and Drug Administration (FDA) for use in people age 12 and older who have moderate&#10;&#9;&#9;or severe persistent&#10;&#9;&#9;asthma. This medicine costs a lot more than any of the standard&#10;&#9;&#9;treatments..."/>
		<documentation>
			<type value="documentation"/>
			<resource>
				<reference value="#InfoButtonResponse59"/>
			</resource>
		</documentation>
	</action>
	<action >
		<title value="Asthma: Ways to Take Inhaled Medicines"/>
		<description value="When you use inhaled&#10;&#9;&#9;asthma medicine, you usually use a device that&#10;&#9;&#9;delivers the medicine directly to your lungs. Different types of delivery&#10;&#9;&#9;systems are available. And one type may be more suitable for certain people,&#10;&#9;&#9;age groups, or..."/>
		<documentation>
			<type value="documentation"/>
			<resource>
				<reference value="#InfoButtonResponse60"/>
			</resource>
		</documentation>
	</action>
	<action >
		<title value="Asthma: Overuse of Quick-Relief Medicines"/>
		<description value="Medicines for quick relief of the narrowed&#10;&#9;&#9;bronchial tubes caused by&#10;&#9;&#9;asthma include short-acting beta2-agonists. These&#10;&#9;&#9;medicines relieve sudden increases of symptoms (asthma attacks)&#10;&#9;&#9;quickly. But overuse may be harmful."/>
		<documentation>
			<type value="documentation"/>
			<resource>
				<reference value="#InfoButtonResponse61"/>
			</resource>
		</documentation>
	</action>
	<action >
		<title value="Asthma Diary"/>
		<description value="An asthma diary helps you keep track of how well you are managing&#10;&#9;&#9;your&#10;&#9;&#9;asthma."/>
		<documentation>
			<type value="documentation"/>
			<resource>
				<reference value="#InfoButtonResponse62"/>
			</resource>
		</documentation>
	</action>
	<action >
		<title value="Inhaled Corticosteroids for Long-Term Control of Asthma"/>
		<description value="Covers medicines used in metered-dose or dry powder inhaler to treat asthma. Lists generic and brand names such as budesonide (Pulmicort) and fluticasone and salmeterol (Advair). Covers how well they work and side effects."/>
		<documentation>
			<type value="documentation"/>
			<resource>
				<reference value="#InfoButtonResponse63"/>
			</resource>
		</documentation>
	</action>
	<action >
		<title value="Asthma Action Plan"/>
		<description value="An&#10;&#9;&#9;  asthma action plan is a written plan that tells you&#10;&#9;&#9;  how to treat your asthma on a daily basis. The plan also helps you deal with&#10;&#9;&#9;  sudden increases in your or your child's asthma symptoms (asthma attacks). You need to treat the&#10;&#9;&#9; ..."/>
		<documentation>
			<type value="documentation"/>
			<resource>
				<reference value="#InfoButtonResponse64"/>
			</resource>
		</documentation>
	</action>
	<action >
		<title value="Assessing Your Asthma Knowledge"/>
		<description value="Understanding&#10;&#9;&#9;asthma can help you control your symptoms and reduce&#10;&#9;&#9;your risk of&#10;&#9;&#9;asthma attacks."/>
		<documentation>
			<type value="documentation"/>
			<resource>
				<reference value="#InfoButtonResponse65"/>
			</resource>
		</documentation>
	</action>
	<action >
		<title value="Asthma: Medicines for Teens and Adults"/>
		<description value="Medicines are an important part of treating asthma.They can reduce symptoms and help prevent asthma attacks. They can reduce long-term damage&#10;&#9;&#9;  to your lungs. And they can lower the chance that you will have to go to the&#10;&#9;&#9;  hospital.If you work..."/>
		<documentation>
			<type value="documentation"/>
			<resource>
				<reference value="#InfoButtonResponse66"/>
			</resource>
		</documentation>
	</action>
	<action >
		<title value="Asthma: Managing Your Asthma"/>
		<description value="You can manage your asthma so it does not take control of your life. You&#10;&#9;&#9;  will have the best chance of controlling your asthma if you always follow your&#10;&#9;&#9;  asthma action plan. Avoiding asthma triggers and&#10;&#9;&#9;  taking your medicines correctly will..."/>
		<documentation>
			<type value="documentation"/>
			<resource>
				<reference value="#InfoButtonResponse67"/>
			</resource>
		</documentation>
	</action>
	<action >
		<title value="Asthma: Identifying Your Triggers"/>
		<description value="During an asthma attack, your airways get swollen and narrow. This makes it hard to breathe. Severe asthma attacks can be life-threatening. But you can make a difference by knowing what your triggers are. A trigger is anything that makes you have an..."/>
		<documentation>
			<type value="documentation"/>
			<resource>
				<reference value="#InfoButtonResponse68"/>
			</resource>
		</documentation>
	</action>
	<action >
		<title value="Breathing Problems: How to Use a Metered-Dose Inhaler"/>
		<description value="A metered-dose inhaler lets you breathe medicine&#10;&#9;&#9;  into your lungs quickly. It can help you breathe during an emergency. Or you&#10;&#9;&#9;  may use one with a longer-acting medicine to prevent breathing problems and be&#10;&#9;&#9;  more active.A metered-dose..."/>
		<documentation>
			<type value="documentation"/>
			<resource>
				<reference value="#InfoButtonResponse69"/>
			</resource>
		</documentation>
	</action>
	<action >
		<title value="Asthma: How to Use a Peak Flow Meter"/>
		<description value="When you have asthma, you need to know how well your lungs are working. One way to do this is by checking your peak flow with a peak flow meter. Your peak flow can tell you if your asthma is staying the same, getting better, or getting..."/>
		<documentation>
			<type value="documentation"/>
			<resource>
				<reference value="#InfoButtonResponse70"/>
			</resource>
		</documentation>
	</action>
	<action >
		<title value="Asthma (Holistic)"/>
		<description value="Don&#x2019;t let asthma knock the wind out of you. Asthma is a lung disorder characterized by sudden fits of wheezing, coughing, or shortness of breath. According to research or other evidence, the following self-care steps may be helpful. Try proven herbal remedies Boswellia extract (900 mg a day), ivy leaf extract (50 drops..."/>
		<documentation>
			<type value="documentation"/>
			<resource>
				<reference value="#InfoButtonResponse71"/>
			</resource>
		</documentation>
	</action>
	<action >
		<title value="Asthma (Homeopathy)"/>
		<description value="Primary RemediesArsenicum album A person needing this remedy can feel exhausted, yet be very restless and anxious. Breathing problems tend to be worse while lying down, better when sitting up, and may begin, or be the most intense, between midnight and two a.m. Dry wheezing may progress to a cough that brings up frothy..."/>
		<documentation>
			<type value="documentation"/>
			<resource>
				<reference value="#InfoButtonResponse72"/>
			</resource>
		</documentation>
	</action>
</GuidanceResponse>
